Subject,Block,Order,Type,ImagePair,Trial,TrialOrder,RT,Outliers,Image1,Image2,G1,L1,G2,L2,Response
8,global,local-global,GSLD,7,1187,2,0.505687439785106,0,1,8,1,1,1,2,same
8,global,local-global,GSLD,14,510,1,0.949165226353216,0,1,15,1,1,1,3,same
8,global,local-global,GSLD,21,335,1,1.00988022213278,0,1,22,1,1,1,4,same
8,global,local-global,GSLD,28,945,2,0.567336413165322,0,1,29,1,1,1,5,same
8,global,local-global,GSLD,35,979,1,0.64480171816831,0,1,36,1,1,1,6,same
8,global,local-global,GSLD,42,452,1,1.80421747338551,1,1,43,1,1,1,7,same
8,global,local-global,GSLD,55,392,1,0.845674349431647,0,2,9,2,1,2,2,same
8,global,local-global,GSLD,62,300,1,0.838243289297679,0,2,16,2,1,2,3,same
8,global,local-global,GSLD,69,584,2,1.07122891512699,1,2,23,2,1,2,4,same
8,global,local-global,GSLD,76,168,1,0.716020956286229,0,2,30,2,1,2,5,same
8,global,local-global,GSLD,83,145,1,1.04584026608791,0,2,37,2,1,2,6,same
8,global,local-global,GSLD,90,414,2,0.757778405968565,0,2,44,2,1,2,7,same
8,global,local-global,GSLD,102,306,1,0.990001014622976,0,3,10,3,1,3,2,same
8,global,local-global,GSLD,109,1053,2,0.68527535184694,0,3,17,3,1,3,3,same
8,global,local-global,GSLD,116,421,2,0.953143061909941,0,3,24,3,1,3,4,same
8,global,local-global,GSLD,123,379,1,0.707435693359002,0,3,31,3,1,3,5,same
8,global,local-global,GSLD,130,672,2,0.907407483435236,0,3,38,3,1,3,6,same
8,global,local-global,GSLD,137,723,1,0.658631624581176,0,3,45,3,1,3,7,same
8,global,local-global,GSLD,148,304,2,0.623261877932237,0,4,11,4,1,4,2,same
8,global,local-global,GSLD,155,727,1,0.532328527871869,0,4,18,4,1,4,3,same
8,global,local-global,GSLD,162,661,1,0.548141340579605,0,4,25,4,1,4,4,same
8,global,local-global,GSLD,169,792,2,0.638150976534234,0,4,32,4,1,4,5,same
8,global,local-global,GSLD,176,78,1,1.18271417118376,1,4,39,4,1,4,6,same
8,global,local-global,GSLD,183,348,1,0.971305920626037,0,4,46,4,1,4,7,same
8,global,local-global,GSLD,193,594,1,1.5112707784283,1,5,12,5,1,5,2,same
8,global,local-global,GSLD,200,752,2,1.21519254600571,1,5,19,5,1,5,3,same
8,global,local-global,GSLD,207,739,1,0.588625530988793,0,5,26,5,1,5,4,same
8,global,local-global,GSLD,214,492,2,0.626113075515605,0,5,33,5,1,5,5,same
8,global,local-global,GSLD,221,187,1,1.12419908121228,0,5,40,5,1,5,6,same
8,global,local-global,GSLD,228,512,1,0.886152674982441,0,5,47,5,1,5,7,same
8,global,local-global,GSLD,237,253,1,1.10803085850785,0,6,13,6,1,6,2,same
8,global,local-global,GSLD,244,1160,2,0.673531573134824,0,6,20,6,1,6,3,same
8,global,local-global,GSLD,251,891,2,0.674670527310809,0,6,27,6,1,6,4,same
8,global,local-global,GSLD,258,868,1,0.691953658286366,0,6,34,6,1,6,5,same
8,global,local-global,GSLD,265,615,2,1.30302338962792,0,6,41,6,1,6,6,same
8,global,local-global,GSLD,272,318,2,2.06639920989983,1,6,48,6,1,6,7,same
8,global,local-global,GSLD,280,517,1,1.06618748874462,1,7,14,7,1,7,2,same
8,global,local-global,GSLD,287,916,2,0.784196043212432,0,7,21,7,1,7,3,same
8,global,local-global,GSLD,294,825,1,0.604164161879453,0,7,28,7,1,7,4,same
8,global,local-global,GSLD,301,40,1,1.33154416261823,1,7,35,7,1,7,5,same
8,global,local-global,GSLD,308,1195,2,0.922103628414334,0,7,42,7,1,7,6,same
8,global,local-global,GSLD,315,111,2,2.02874393061211,1,7,49,7,1,7,7,same
8,global,local-global,GSLD,322,726,1,0.569311988394475,0,8,15,1,2,1,3,same
8,global,local-global,GSLD,329,256,1,0.773128775137593,0,8,22,1,2,1,4,same
8,global,local-global,GSLD,336,167,2,2.08981697558193,1,8,29,1,2,1,5,same
8,global,local-global,GSLD,343,878,2,1.18001164759335,1,8,36,1,2,1,6,same
8,global,local-global,GSLD,350,788,2,0.615493588833488,0,8,43,1,2,1,7,same
8,global,local-global,GSLD,363,1034,2,0.614047023205785,0,9,16,2,2,2,3,same
8,global,local-global,GSLD,370,954,2,0.5315139000013,0,9,23,2,2,2,4,same
8,global,local-global,GSLD,377,545,1,1.2978080703906,1,9,30,2,2,2,5,same
8,global,local-global,GSLD,384,296,1,0.82283515133895,0,9,37,2,2,2,6,same
8,global,local-global,GSLD,391,146,1,0.521724876292865,0,9,44,2,2,2,7,same
8,global,local-global,GSLD,403,1185,2,0.671153375835274,0,10,17,3,2,3,3,same
8,global,local-global,GSLD,410,199,1,0.897113789251307,0,10,24,3,2,3,4,same
8,global,local-global,GSLD,417,923,2,0.793598573203781,0,10,31,3,2,3,5,same
8,global,local-global,GSLD,424,994,2,0.62507822245243,0,10,38,3,2,3,6,same
8,global,local-global,GSLD,431,1008,1,1.36100507133233,1,10,45,3,2,3,7,same
8,global,local-global,GSLD,442,657,2,0.63584081150475,0,11,18,4,2,4,3,same
8,global,local-global,GSLD,449,720,2,0.775027814059285,0,11,25,4,2,4,4,same
8,global,local-global,GSLD,456,432,1,0.749449730312335,0,11,32,4,2,4,5,same
8,global,local-global,GSLD,463,705,1,0.624995821286575,0,11,39,4,2,4,6,same
8,global,local-global,GSLD,470,192,2,0.797130386796198,0,11,46,4,2,4,7,same
8,global,local-global,GSLD,480,475,1,1.53535860340344,1,12,19,5,2,5,3,same
8,global,local-global,GSLD,487,1108,2,0.723152322505484,0,12,26,5,2,5,4,same
8,global,local-global,GSLD,494,190,1,0.758475736816763,0,12,33,5,2,5,5,same
8,global,local-global,GSLD,501,1132,2,0.615909993299283,0,12,40,5,2,5,6,same
8,global,local-global,GSLD,508,1208,2,0.915586605391582,0,12,47,5,2,5,7,same
8,global,local-global,GSLD,517,683,2,0.813498014453216,0,13,20,6,2,6,3,same
8,global,local-global,GSLD,524,689,1,0.851902528505889,0,13,27,6,2,6,4,same
8,global,local-global,GSLD,531,784,2,0.742962618023739,0,13,34,6,2,6,5,same
8,global,local-global,GSLD,538,101,1,1.63780084488099,1,13,41,6,2,6,6,same
8,global,local-global,GSLD,545,225,1,0.994464459872688,0,13,48,6,2,6,7,same
8,global,local-global,GSLD,553,389,1,0.93593118886929,0,14,21,7,2,7,3,same
8,global,local-global,GSLD,560,17,1,0.889270430066972,0,14,28,7,2,7,4,same
8,global,local-global,GSLD,567,753,1,0.987214916895027,0,14,35,7,2,7,5,same
8,global,local-global,GSLD,574,332,1,1.28338962614362,1,14,42,7,2,7,6,same
8,global,local-global,GSLD,581,91,1,1.17953072977252,1,14,49,7,2,7,7,same
8,global,local-global,GSLD,588,1085,2,0.640913614843157,0,15,22,1,3,1,4,same
8,global,local-global,GSLD,595,1207,2,0.758287475080579,0,15,29,1,3,1,5,same
8,global,local-global,GSLD,602,354,1,0.647894254390849,0,15,36,1,3,1,6,same
8,global,local-global,GSLD,609,1137,2,0.673684939014493,0,15,43,1,3,1,7,same
8,global,local-global,GSLD,622,542,2,1.08562741888454,0,16,23,2,3,2,4,same
8,global,local-global,GSLD,629,562,2,0.634151734266197,0,16,30,2,3,2,5,same
8,global,local-global,GSLD,636,791,2,0.767433417815482,0,16,37,2,3,2,6,same
8,global,local-global,GSLD,643,526,1,0.62840711219178,0,16,44,2,3,2,7,same
8,global,local-global,GSLD,655,61,1,0.853065528572188,0,17,24,3,3,3,4,same
8,global,local-global,GSLD,662,528,1,0.824721580836922,0,17,31,3,3,3,5,same
8,global,local-global,GSLD,669,36,1,0.790875815888285,0,17,38,3,3,3,6,same
8,global,local-global,GSLD,676,367,1,0.603635445528198,0,17,45,3,3,3,7,same
8,global,local-global,GSLD,687,210,2,0.761760933397454,0,18,25,4,3,4,4,same
8,global,local-global,GSLD,694,345,1,0.64853997452883,0,18,32,4,3,4,5,same
8,global,local-global,GSLD,701,820,1,0.659074127615895,0,18,39,4,3,4,6,same
8,global,local-global,GSLD,708,295,1,0.620202184887603,0,18,46,4,3,4,7,same
8,global,local-global,GSLD,718,293,1,1.32479577120102,1,19,26,5,3,5,4,same
8,global,local-global,GSLD,725,927,1,0.563624841874116,0,19,33,5,3,5,5,same
8,global,local-global,GSLD,732,578,2,0.537940311056445,0,19,40,5,3,5,6,same
8,global,local-global,GSLD,739,765,1,0.788198804395506,0,19,47,5,3,5,7,same
8,global,local-global,GSLD,748,599,2,1.01684795900655,0,20,27,6,3,6,4,same
8,global,local-global,GSLD,755,381,2,1.12642684507591,0,20,34,6,3,6,5,same
8,global,local-global,GSLD,762,1180,2,1.62217805336695,1,20,41,6,3,6,6,same
8,global,local-global,GSLD,769,1086,2,1.07413817473571,0,20,48,6,3,6,7,same
8,global,local-global,GSLD,777,397,2,0.721427762910025,0,21,28,7,3,7,4,same
8,global,local-global,GSLD,784,1068,2,0.609103833092377,0,21,35,7,3,7,5,same
8,global,local-global,GSLD,791,589,1,1.19815779148485,1,21,42,7,3,7,6,same
8,global,local-global,GSLD,798,688,2,0.769098449163721,0,21,49,7,3,7,7,same
8,global,local-global,GSLD,805,171,1,0.737010673430632,0,22,29,1,4,1,5,same
8,global,local-global,GSLD,812,251,1,1.43449224754295,1,22,36,1,4,1,6,same
8,global,local-global,GSLD,819,524,2,0.602241077067447,0,22,43,1,4,1,7,same
8,global,local-global,GSLD,832,899,2,0.671346329443622,0,23,30,2,4,2,5,same
8,global,local-global,GSLD,839,863,2,0.526634930007276,0,23,37,2,4,2,6,same
8,global,local-global,GSLD,846,644,2,0.785610645412817,0,23,44,2,4,2,7,same
8,global,local-global,GSLD,858,100,1,0.835232274504961,0,24,31,3,4,3,5,same
8,global,local-global,GSLD,865,714,2,0.750420656477218,0,24,38,3,4,3,6,same
8,global,local-global,GSLD,872,984,2,1.17518634098815,0,24,45,3,4,3,7,same
8,global,local-global,GSLD,883,829,2,0.544146496948088,0,25,32,4,4,4,5,same
8,global,local-global,GSLD,890,628,2,0.663704721140675,0,25,39,4,4,4,6,same
8,global,local-global,GSLD,897,1171,1,0.515890521986876,0,25,46,4,4,4,7,same
8,global,local-global,GSLD,907,232,1,0.69133843536838,0,26,33,5,4,5,5,same
8,global,local-global,GSLD,914,330,1,0.910471281880746,0,26,40,5,4,5,6,same
8,global,local-global,GSLD,921,990,2,0.995404595581931,0,26,47,5,4,5,7,same
8,global,local-global,GSLD,930,728,1,0.649302405232447,0,27,34,6,4,6,5,same
8,global,local-global,GSLD,937,43,1,1.59064626558393,1,27,41,6,4,6,6,same
8,global,local-global,GSLD,944,1061,1,1.28700266793021,0,27,48,6,4,6,7,same
8,global,local-global,GSLD,952,843,1,1.02007392059022,0,28,35,7,4,7,5,same
8,global,local-global,GSLD,959,426,2,0.909097147159628,0,28,42,7,4,7,6,same
8,global,local-global,GSLD,966,754,1,0.727002597544924,0,28,49,7,4,7,7,same
8,global,local-global,GSLD,973,113,1,0.827807372465031,0,29,36,1,5,1,6,same
8,global,local-global,GSLD,980,435,2,0.68520702632668,0,29,43,1,5,1,7,same
8,global,local-global,GSLD,993,480,1,0.767443094810005,0,30,37,2,5,2,6,same
8,global,local-global,GSLD,1000,437,2,0.566103328135796,0,30,44,2,5,2,7,same
8,global,local-global,GSLD,1012,11,1,1.00622172774456,0,31,38,3,5,3,6,same
8,global,local-global,GSLD,1019,635,2,0.903068079787772,0,31,45,3,5,3,7,same
8,global,local-global,GSLD,1030,125,1,0.877980297620525,0,32,39,4,5,4,6,same
8,global,local-global,GSLD,1037,27,1,1.44724419423437,1,32,46,4,5,4,7,same
8,global,local-global,GSLD,1047,341,1,0.744152303159353,0,33,40,5,5,5,6,same
8,global,local-global,GSLD,1054,921,2,0.551471696511726,0,33,47,5,5,5,7,same
8,global,local-global,GSLD,1063,858,2,0.594848138469388,0,34,41,6,5,6,6,same
8,global,local-global,GSLD,1070,44,2,0.838607203331776,0,34,48,6,5,6,7,same
8,global,local-global,GSLD,1078,733,1,0.674360276650987,0,35,42,7,5,7,6,same
8,global,local-global,GSLD,1085,69,1,0.683027647493873,0,35,49,7,5,7,7,same
8,global,local-global,GSLD,1092,89,1,1.26078736805357,0,36,43,1,6,1,7,same
8,global,local-global,GSLD,1105,1098,2,0.595653969066916,0,37,44,2,6,2,7,same
8,global,local-global,GSLD,1117,547,1,0.803395221213577,0,38,45,3,6,3,7,same
8,global,local-global,GSLD,1128,575,2,0.678670356050134,0,39,46,4,6,4,7,same
8,global,local-global,GSLD,1138,309,1,0.76882456059684,0,40,47,5,6,5,7,same
8,global,local-global,GSLD,1147,126,2,1.25489817738708,1,41,48,6,6,6,7,same
8,global,local-global,GSLD,1155,862,2,0.577522487306851,0,42,49,7,6,7,7,same
7,global,global-local,GSLD,7,829,2,0.664472638571169,0,1,8,1,1,1,2,same
7,global,global-local,GSLD,14,931,2,0.604837711696746,0,1,15,1,1,1,3,same
7,global,global-local,GSLD,21,436,2,0.6351262665994,0,1,22,1,1,1,4,same
7,global,global-local,GSLD,28,1154,2,0.603146591689438,0,1,29,1,1,1,5,same
7,global,global-local,GSLD,35,356,1,0.561163298232714,0,1,36,1,1,1,6,same
7,global,global-local,GSLD,42,720,1,0.669616669678362,0,1,43,1,1,1,7,same
7,global,global-local,GSLD,55,413,1,1.05279508387321,0,2,9,2,1,2,2,same
7,global,global-local,GSLD,62,519,1,0.637106522073736,0,2,16,2,1,2,3,same
7,global,global-local,GSLD,69,884,2,0.556916877365438,0,2,23,2,1,2,4,same
7,global,global-local,GSLD,76,267,1,0.925282522890484,0,2,30,2,1,2,5,same
7,global,global-local,GSLD,83,359,2,0.304646753269481,0,2,37,2,1,2,6,same
7,global,global-local,GSLD,90,488,1,0.557977529533673,0,2,44,2,1,2,7,same
7,global,global-local,GSLD,102,34,1,3.45898733375361,1,3,10,3,1,3,2,same
7,global,global-local,GSLD,109,1029,1,0.949032979639014,0,3,17,3,1,3,3,same
7,global,global-local,GSLD,116,1050,2,0.644174799701432,0,3,24,3,1,3,4,same
7,global,global-local,GSLD,123,455,2,0.708218602841953,0,3,31,3,1,3,5,same
7,global,global-local,GSLD,130,1270,2,0.539603057462955,0,3,38,3,1,3,6,same
7,global,global-local,GSLD,137,1285,2,1.35556128353346,0,3,45,3,1,3,7,same
7,global,global-local,GSLD,148,1123,1,0.846162620815448,0,4,11,4,1,4,2,same
7,global,global-local,GSLD,155,347,1,0.683176713384455,0,4,18,4,1,4,3,same
7,global,global-local,GSLD,162,533,2,0.428663003491238,0,4,25,4,1,4,4,same
7,global,global-local,GSLD,169,813,2,0.847387781104771,0,4,32,4,1,4,5,same
7,global,global-local,GSLD,176,329,1,0.897434611688368,0,4,39,4,1,4,6,same
7,global,global-local,GSLD,183,914,2,0.725206925417297,0,4,46,4,1,4,7,same
7,global,global-local,GSLD,193,415,2,0.555529848119477,0,5,12,5,1,5,2,same
7,global,global-local,GSLD,200,336,1,0.508585799048888,0,5,19,5,1,5,3,same
7,global,global-local,GSLD,207,685,1,0.6888148553262,0,5,26,5,1,5,4,same
7,global,global-local,GSLD,214,1065,2,0.822607462498127,0,5,33,5,1,5,5,same
7,global,global-local,GSLD,221,1236,2,0.618265503784642,0,5,40,5,1,5,6,same
7,global,global-local,GSLD,228,1114,2,0.787703003297793,0,5,47,5,1,5,7,same
7,global,global-local,GSLD,237,941,2,0.822894252080005,0,6,13,6,1,6,2,same
7,global,global-local,GSLD,244,19,1,0.970843061571941,0,6,20,6,1,6,3,same
7,global,global-local,GSLD,251,56,1,1.02332173858304,0,6,27,6,1,6,4,same
7,global,global-local,GSLD,258,118,1,0.743370557320304,0,6,34,6,1,6,5,same
7,global,global-local,GSLD,265,630,1,0.675470930145821,0,6,41,6,1,6,6,same
7,global,global-local,GSLD,272,126,1,0.585954759968445,0,6,48,6,1,6,7,same
7,global,global-local,GSLD,280,509,1,0.628250061738072,0,7,14,7,1,7,2,same
7,global,global-local,GSLD,287,876,1,0.686345767317107,0,7,21,7,1,7,3,same
7,global,global-local,GSLD,294,893,2,0.662777413177537,0,7,28,7,1,7,4,same
7,global,global-local,GSLD,301,450,2,0.605957305320771,0,7,35,7,1,7,5,same
7,global,global-local,GSLD,308,1191,2,0.559813510539243,0,7,42,7,1,7,6,same
7,global,global-local,GSLD,315,795,1,0.436131554888561,0,7,49,7,1,7,7,same
7,global,global-local,GSLD,322,741,2,0.51240144908661,0,8,15,1,2,1,3,same
7,global,global-local,GSLD,329,234,1,0.524448663200019,0,8,22,1,2,1,4,same
7,global,global-local,GSLD,336,754,2,1.89191904442851,1,8,29,1,2,1,5,same
7,global,global-local,GSLD,343,627,1,0.538969657180132,0,8,36,1,2,1,6,same
7,global,global-local,GSLD,350,808,2,0.739416790864198,0,8,43,1,2,1,7,same
7,global,global-local,GSLD,363,216,1,0.628501662402414,0,9,16,2,2,2,3,same
7,global,global-local,GSLD,370,617,1,0.590824610873824,0,9,23,2,2,2,4,same
7,global,global-local,GSLD,377,703,2,0.575741767417639,0,9,30,2,2,2,5,same
7,global,global-local,GSLD,384,226,2,0.620686500304146,0,9,37,2,2,2,6,same
7,global,global-local,GSLD,391,1283,2,0.567707847629208,0,9,44,2,2,2,7,same
7,global,global-local,GSLD,403,998,2,0.871807120245649,0,10,17,3,2,3,3,same
7,global,global-local,GSLD,410,970,1,0.83892162432312,0,10,24,3,2,3,4,same
7,global,global-local,GSLD,417,1118,2,0.985661988292122,0,10,31,3,2,3,5,same
7,global,global-local,GSLD,424,428,2,0.72392106425832,0,10,38,3,2,3,6,same
7,global,global-local,GSLD,431,365,1,0.781680422573118,0,10,45,3,2,3,7,same
7,global,global-local,GSLD,442,1282,2,1.08639667395619,1,11,18,4,2,4,3,same
7,global,global-local,GSLD,449,842,2,0.880204072163906,0,11,25,4,2,4,4,same
7,global,global-local,GSLD,456,357,1,0.534740537579637,0,11,32,4,2,4,5,same
7,global,global-local,GSLD,463,967,2,0.711677965242416,0,11,39,4,2,4,6,same
7,global,global-local,GSLD,470,587,2,0.558246431406587,0,11,46,4,2,4,7,same
7,global,global-local,GSLD,480,694,1,0.653484023932833,0,12,19,5,2,5,3,same
7,global,global-local,GSLD,487,1262,2,0.849210273037897,0,12,26,5,2,5,4,same
7,global,global-local,GSLD,494,145,1,0.928143087454373,0,12,33,5,2,5,5,same
7,global,global-local,GSLD,501,1129,2,0.629216290370096,0,12,40,5,2,5,6,same
7,global,global-local,GSLD,508,485,2,0.628397268650588,0,12,47,5,2,5,7,same
7,global,global-local,GSLD,517,645,1,0.848791818338213,0,13,20,6,2,6,3,same
7,global,global-local,GSLD,524,491,2,0.546711802307982,0,13,27,6,2,6,4,same
7,global,global-local,GSLD,531,350,2,0.760514297551708,0,13,34,6,2,6,5,same
7,global,global-local,GSLD,538,823,2,0.740154291619547,0,13,41,6,2,6,6,same
7,global,global-local,GSLD,545,119,1,0.516139683546498,0,13,48,6,2,6,7,same
7,global,global-local,GSLD,553,577,1,0.668284183222568,0,14,21,7,2,7,3,same
7,global,global-local,GSLD,560,883,1,0.763724111951888,0,14,28,7,2,7,4,same
7,global,global-local,GSLD,567,1067,2,0.592321605450707,0,14,35,7,2,7,5,same
7,global,global-local,GSLD,574,239,1,0.626713186386041,0,14,42,7,2,7,6,same
7,global,global-local,GSLD,581,465,1,0.555813118786318,0,14,49,7,2,7,7,same
7,global,global-local,GSLD,588,973,2,0.562723632814595,0,15,22,1,3,1,4,same
7,global,global-local,GSLD,595,314,1,0.7749572894827,0,15,29,1,3,1,5,same
7,global,global-local,GSLD,602,1049,2,0.68372478056699,0,15,36,1,3,1,6,same
7,global,global-local,GSLD,609,615,2,0.523519382928498,0,15,43,1,3,1,7,same
7,global,global-local,GSLD,622,986,1,0.586107538460055,0,16,23,2,3,2,4,same
7,global,global-local,GSLD,629,125,1,0.72250383120263,0,16,30,2,3,2,5,same
7,global,global-local,GSLD,636,128,1,0.443149981554598,0,16,37,2,3,2,6,same
7,global,global-local,GSLD,643,301,2,0.720268456119811,0,16,44,2,3,2,7,same
7,global,global-local,GSLD,655,592,1,0.799979825038463,0,17,24,3,3,3,4,same
7,global,global-local,GSLD,662,447,1,0.827320429554675,0,17,31,3,3,3,5,same
7,global,global-local,GSLD,669,1252,2,0.761336838128045,0,17,38,3,3,3,6,same
7,global,global-local,GSLD,676,1069,1,0.566855103243142,0,17,45,3,3,3,7,same
7,global,global-local,GSLD,687,106,1,0.564279275567969,0,18,25,4,3,4,4,same
7,global,global-local,GSLD,694,270,1,0.438634072372224,0,18,32,4,3,4,5,same
7,global,global-local,GSLD,701,681,2,0.55632511730073,0,18,39,4,3,4,6,same
7,global,global-local,GSLD,708,1097,2,0.567941267392598,0,18,46,4,3,4,7,same
7,global,global-local,GSLD,718,633,2,0.617405721597606,0,19,26,5,3,5,4,same
7,global,global-local,GSLD,725,479,1,0.591813712293515,0,19,33,5,3,5,5,same
7,global,global-local,GSLD,732,91,1,0.443021542072529,0,19,40,5,3,5,6,same
7,global,global-local,GSLD,739,282,1,0.542448080232134,0,19,47,5,3,5,7,same
7,global,global-local,GSLD,748,688,1,0.649304462014697,0,20,27,6,3,6,4,same
7,global,global-local,GSLD,755,507,2,0.532525689370232,0,20,34,6,3,6,5,same
7,global,global-local,GSLD,762,626,2,0.498927324952092,0,20,41,6,3,6,6,same
7,global,global-local,GSLD,769,14,1,0.932516481610946,0,20,48,6,3,6,7,same
7,global,global-local,GSLD,777,7,1,1.02542163638282,0,21,28,7,3,7,4,same
7,global,global-local,GSLD,784,981,1,0.730467959627276,0,21,35,7,3,7,5,same
7,global,global-local,GSLD,791,355,1,0.628688163560582,0,21,42,7,3,7,6,same
7,global,global-local,GSLD,798,966,2,0.536443973716814,0,21,49,7,3,7,7,same
7,global,global-local,GSLD,805,1256,2,0.791807788831647,0,22,29,1,4,1,5,same
7,global,global-local,GSLD,812,969,2,1.40282819076674,1,22,36,1,4,1,6,same
7,global,global-local,GSLD,819,610,1,0.638432264007861,0,22,43,1,4,1,7,same
7,global,global-local,GSLD,832,1183,2,0.67748725428828,0,23,30,2,4,2,5,same
7,global,global-local,GSLD,839,693,1,0.901577811746392,0,23,37,2,4,2,6,same
7,global,global-local,GSLD,846,388,1,0.992733491555555,0,23,44,2,4,2,7,same
7,global,global-local,GSLD,858,927,2,1.16449463163735,0,24,31,3,4,3,5,same
7,global,global-local,GSLD,865,341,1,0.888233300065622,0,24,38,3,4,3,6,same
7,global,global-local,GSLD,872,1045,1,0.916879119671648,0,24,45,3,4,3,7,same
7,global,global-local,GSLD,883,1288,2,0.500715507689165,0,25,32,4,4,4,5,same
7,global,global-local,GSLD,890,1040,2,1.29432702102349,1,25,39,4,4,4,6,same
7,global,global-local,GSLD,897,772,2,0.673388626833912,0,25,46,4,4,4,7,same
7,global,global-local,GSLD,907,605,2,0.633329579839483,0,26,33,5,4,5,5,same
7,global,global-local,GSLD,914,457,2,1.02730336293462,0,26,40,5,4,5,6,same
7,global,global-local,GSLD,921,1003,2,0.669705521664582,0,26,47,5,4,5,7,same
7,global,global-local,GSLD,930,1119,1,0.951023205328966,0,27,34,6,4,6,5,same
7,global,global-local,GSLD,937,1048,1,0.599675206409302,0,27,41,6,4,6,6,same
7,global,global-local,GSLD,944,947,2,0.948841200122843,0,27,48,6,4,6,7,same
7,global,global-local,GSLD,952,300,1,0.804181673272979,0,28,35,7,4,7,5,same
7,global,global-local,GSLD,959,467,2,0.795603498496348,0,28,42,7,4,7,6,same
7,global,global-local,GSLD,966,1224,2,0.55705470056273,0,28,49,7,4,7,7,same
7,global,global-local,GSLD,973,1264,2,0.801444563112454,0,29,36,1,5,1,6,same
7,global,global-local,GSLD,980,520,1,0.808540698606521,0,29,43,1,5,1,7,same
7,global,global-local,GSLD,993,512,1,0.860771293839207,0,30,37,2,5,2,6,same
7,global,global-local,GSLD,1000,954,2,0.625517936656252,0,30,44,2,5,2,7,same
7,global,global-local,GSLD,1012,1239,2,0.74092228943482,0,31,38,3,5,3,6,same
7,global,global-local,GSLD,1019,274,1,0.812390657811193,0,31,45,3,5,3,7,same
7,global,global-local,GSLD,1030,867,2,0.670248896960402,0,32,39,4,5,4,6,same
7,global,global-local,GSLD,1037,1232,2,0.539735309081152,0,32,46,4,5,4,7,same
7,global,global-local,GSLD,1047,532,1,0.70897633722052,0,33,40,5,5,5,6,same
7,global,global-local,GSLD,1054,951,2,0.75629514810862,0,33,47,5,5,5,7,same
7,global,global-local,GSLD,1063,636,2,0.54736836857046,0,34,41,6,5,6,6,same
7,global,global-local,GSLD,1070,309,2,0.532471146580065,0,34,48,6,5,6,7,same
7,global,global-local,GSLD,1078,323,2,0.602714941167505,0,35,42,7,5,7,6,same
7,global,global-local,GSLD,1085,958,2,0.550012521387544,0,35,49,7,5,7,7,same
7,global,global-local,GSLD,1092,707,2,0.648421220539603,0,36,43,1,6,1,7,same
7,global,global-local,GSLD,1105,492,1,0.649866018240573,0,37,44,2,6,2,7,same
7,global,global-local,GSLD,1117,1162,1,0.51549660632736,0,38,45,3,6,3,7,same
7,global,global-local,GSLD,1128,807,2,0.598988436366199,0,39,46,4,6,4,7,same
7,global,global-local,GSLD,1138,1098,2,0.740261910978006,0,40,47,5,6,5,7,same
7,global,global-local,GSLD,1147,695,1,0.504319731058786,0,41,48,6,6,6,7,same
7,global,global-local,GSLD,1155,332,1,0.539065840188414,0,42,49,7,6,7,7,same
6,global,local-global,GSLD,7,1011,2,0.644288870389573,0,1,8,1,1,1,2,same
6,global,local-global,GSLD,14,770,1,0.524225800152635,0,1,15,1,1,1,3,same
6,global,local-global,GSLD,21,178,1,0.674912306334591,0,1,22,1,1,1,4,same
6,global,local-global,GSLD,28,153,1,0.640818951331312,0,1,29,1,1,1,5,same
6,global,local-global,GSLD,35,108,1,0.620697056961944,0,1,36,1,1,1,6,same
6,global,local-global,GSLD,42,1056,1,1.00197321770247,0,1,43,1,1,1,7,same
6,global,local-global,GSLD,55,1149,2,0.909117034170777,0,2,9,2,1,2,2,same
6,global,local-global,GSLD,62,428,1,0.545492800069042,0,2,16,2,1,2,3,same
6,global,local-global,GSLD,69,767,1,0.533344417839544,0,2,23,2,1,2,4,same
6,global,local-global,GSLD,76,1167,2,0.618414763390319,0,2,30,2,1,2,5,same
6,global,local-global,GSLD,83,762,1,0.439382129785372,0,2,37,2,1,2,6,same
6,global,local-global,GSLD,90,18,1,0.654139710502932,0,2,44,2,1,2,7,same
6,global,local-global,GSLD,102,658,1,2.36699093240895,1,3,10,3,1,3,2,same
6,global,local-global,GSLD,109,430,1,0.639765336934943,0,3,17,3,1,3,3,same
6,global,local-global,GSLD,116,969,2,1.72435359450174,1,3,24,3,1,3,4,same
6,global,local-global,GSLD,123,381,2,0.524842192418873,0,3,31,3,1,3,5,same
6,global,local-global,GSLD,130,1145,2,0.63083820551401,0,3,38,3,1,3,6,same
6,global,local-global,GSLD,137,849,2,0.606283682369394,0,3,45,3,1,3,7,same
6,global,local-global,GSLD,148,805,1,0.695671413064701,0,4,11,4,1,4,2,same
6,global,local-global,GSLD,155,232,1,0.618365792179247,0,4,18,4,1,4,3,same
6,global,local-global,GSLD,162,698,1,0.762435611657565,0,4,25,4,1,4,4,same
6,global,local-global,GSLD,169,863,2,0.597360949584981,0,4,32,4,1,4,5,same
6,global,local-global,GSLD,176,166,1,0.592296093498589,0,4,39,4,1,4,6,same
6,global,local-global,GSLD,183,24,1,0.827700176479993,0,4,46,4,1,4,7,same
6,global,local-global,GSLD,193,447,2,0.800128791393945,0,5,12,5,1,5,2,same
6,global,local-global,GSLD,200,1201,2,0.543562395498157,0,5,19,5,1,5,3,same
6,global,local-global,GSLD,207,9,1,0.793388943537138,0,5,26,5,1,5,4,same
6,global,local-global,GSLD,214,1020,2,0.497793655813439,0,5,33,5,1,5,5,same
6,global,local-global,GSLD,221,1202,2,0.571543438039953,0,5,40,5,1,5,6,same
6,global,local-global,GSLD,228,851,2,1.26898485291167,1,5,47,5,1,5,7,same
6,global,local-global,GSLD,237,370,2,0.63052209187299,0,6,13,6,1,6,2,same
6,global,local-global,GSLD,244,20,1,0.753135477862088,0,6,20,6,1,6,3,same
6,global,local-global,GSLD,251,210,1,0.72399877308635,0,6,27,6,1,6,4,same
6,global,local-global,GSLD,258,988,2,0.498761643859325,0,6,34,6,1,6,5,same
6,global,local-global,GSLD,265,745,2,0.899299330281792,0,6,41,6,1,6,6,same
6,global,local-global,GSLD,272,340,1,0.724223395576701,0,6,48,6,1,6,7,same
6,global,local-global,GSLD,280,946,2,0.60528871617862,0,7,14,7,1,7,2,same
6,global,local-global,GSLD,287,839,1,0.562485814472893,0,7,21,7,1,7,3,same
6,global,local-global,GSLD,294,1140,2,0.568392271816265,0,7,28,7,1,7,4,same
6,global,local-global,GSLD,301,589,2,0.542980019148672,0,7,35,7,1,7,5,same
6,global,local-global,GSLD,308,469,2,0.721608860098058,0,7,42,7,1,7,6,same
6,global,local-global,GSLD,315,480,1,0.608551020675804,0,7,49,7,1,7,7,same
6,global,local-global,GSLD,322,149,2,0.508949710958404,0,8,15,1,2,1,3,same
6,global,local-global,GSLD,329,1126,2,0.602363638579845,0,8,22,1,2,1,4,same
6,global,local-global,GSLD,336,190,1,0.599728576285997,0,8,29,1,2,1,5,same
6,global,local-global,GSLD,343,800,2,0.549133385298774,0,8,36,1,2,1,6,same
6,global,local-global,GSLD,350,1018,1,0.513055082963547,0,8,43,1,2,1,7,same
6,global,local-global,GSLD,363,853,2,0.459248318104073,0,9,16,2,2,2,3,same
6,global,local-global,GSLD,370,618,1,0.63656138733495,0,9,23,2,2,2,4,same
6,global,local-global,GSLD,377,133,1,0.647588709776755,0,9,30,2,2,2,5,same
6,global,local-global,GSLD,384,695,1,0.461481347243534,0,9,37,2,2,2,6,same
6,global,local-global,GSLD,391,1096,2,0.533475496515166,0,9,44,2,2,2,7,same
6,global,local-global,GSLD,403,1068,2,0.724810463754693,0,10,17,3,2,3,3,same
6,global,local-global,GSLD,410,320,1,0.800070729717845,0,10,24,3,2,3,4,same
6,global,local-global,GSLD,417,96,1,0.744603048631689,0,10,31,3,2,3,5,same
6,global,local-global,GSLD,424,902,1,0.524871223286027,0,10,38,3,2,3,6,same
6,global,local-global,GSLD,431,744,2,0.588720021245535,0,10,45,3,2,3,7,same
6,global,local-global,GSLD,442,55,1,0.62406434174045,0,11,18,4,2,4,3,same
6,global,local-global,GSLD,449,1103,2,0.69775107721216,0,11,25,4,2,4,4,same
6,global,local-global,GSLD,456,244,1,0.537035440502223,0,11,32,4,2,4,5,same
6,global,local-global,GSLD,463,484,2,0.532256200996926,0,11,39,4,2,4,6,same
6,global,local-global,GSLD,470,1108,1,0.650515840010485,0,11,46,4,2,4,7,same
6,global,local-global,GSLD,480,696,1,0.592632733983919,0,12,19,5,2,5,3,same
6,global,local-global,GSLD,487,1006,2,1.21233335856232,1,12,26,5,2,5,4,same
6,global,local-global,GSLD,494,193,2,0.477172958751908,0,12,33,5,2,5,5,same
6,global,local-global,GSLD,501,941,2,1.46311821768177,1,12,40,5,2,5,6,same
6,global,local-global,GSLD,508,421,1,0.861859510652721,0,12,47,5,2,5,7,same
6,global,local-global,GSLD,517,1205,2,0.707307210279396,0,13,20,6,2,6,3,same
6,global,local-global,GSLD,524,968,2,0.599073769408278,0,13,27,6,2,6,4,same
6,global,local-global,GSLD,531,357,1,0.750316846737405,0,13,34,6,2,6,5,same
6,global,local-global,GSLD,538,544,2,0.619490664073965,0,13,41,6,2,6,6,same
6,global,local-global,GSLD,545,1182,2,0.585838929837337,0,13,48,6,2,6,7,same
6,global,local-global,GSLD,553,383,1,0.588758435798809,0,14,21,7,2,7,3,same
6,global,local-global,GSLD,560,578,1,0.567119313258445,0,14,28,7,2,7,4,same
6,global,local-global,GSLD,567,566,1,0.585642165213358,0,14,35,7,2,7,5,same
6,global,local-global,GSLD,574,572,1,0.582825293531641,0,14,42,7,2,7,6,same
6,global,local-global,GSLD,581,379,1,0.62734394747531,0,14,49,7,2,7,7,same
6,global,local-global,GSLD,588,1177,2,0.533820934244432,0,15,22,1,3,1,4,same
6,global,local-global,GSLD,595,854,1,0.470189427724108,0,15,29,1,3,1,5,same
6,global,local-global,GSLD,602,1074,2,0.552303905424196,0,15,36,1,3,1,6,same
6,global,local-global,GSLD,609,491,1,0.775948150345357,0,15,43,1,3,1,7,same
6,global,local-global,GSLD,622,789,2,0.585155385400867,0,16,23,2,3,2,4,same
6,global,local-global,GSLD,629,1055,2,0.579917517228751,0,16,30,2,3,2,5,same
6,global,local-global,GSLD,636,947,2,0.954768477531616,0,16,37,2,3,2,6,same
6,global,local-global,GSLD,643,1147,2,0.648208327678731,0,16,44,2,3,2,7,same
6,global,local-global,GSLD,655,1046,2,1.46642744075507,1,17,24,3,3,3,4,same
6,global,local-global,GSLD,662,192,1,0.541003575752256,0,17,31,3,3,3,5,same
6,global,local-global,GSLD,669,717,1,0.589408550789813,0,17,38,3,3,3,6,same
6,global,local-global,GSLD,676,312,1,0.644912007206585,0,17,45,3,3,3,7,same
6,global,local-global,GSLD,687,585,2,0.584775052033365,0,18,25,4,3,4,4,same
6,global,local-global,GSLD,694,531,1,0.863557668460999,0,18,32,4,3,4,5,same
6,global,local-global,GSLD,701,627,1,0.453837144566933,0,18,39,4,3,4,6,same
6,global,local-global,GSLD,708,1215,2,0.47745505644707,0,18,46,4,3,4,7,same
6,global,local-global,GSLD,718,196,1,0.564545244997134,0,19,26,5,3,5,4,same
6,global,local-global,GSLD,725,191,1,0.740975952503504,0,19,33,5,3,5,5,same
6,global,local-global,GSLD,732,1197,2,0.893554448644863,0,19,40,5,3,5,6,same
6,global,local-global,GSLD,739,538,1,0.580932717042742,0,19,47,5,3,5,7,same
6,global,local-global,GSLD,748,419,2,0.722879765962716,0,20,27,6,3,6,4,same
6,global,local-global,GSLD,755,912,2,0.64369593738229,0,20,34,6,3,6,5,same
6,global,local-global,GSLD,762,687,2,0.783651294419542,0,20,41,6,3,6,6,same
6,global,local-global,GSLD,769,737,2,0.561985545587959,0,20,48,6,3,6,7,same
6,global,local-global,GSLD,777,977,2,0.524021411256399,0,21,28,7,3,7,4,same
6,global,local-global,GSLD,784,54,1,0.737448558211327,0,21,35,7,3,7,5,same
6,global,local-global,GSLD,791,1005,2,0.615926614700584,0,21,42,7,3,7,6,same
6,global,local-global,GSLD,798,242,1,0.625857216335135,0,21,49,7,3,7,7,same
6,global,local-global,GSLD,805,815,2,0.661127346887952,0,22,29,1,4,1,5,same
6,global,local-global,GSLD,812,17,1,0.833916002913611,0,22,36,1,4,1,6,same
6,global,local-global,GSLD,819,391,1,0.651815190212801,0,22,43,1,4,1,7,same
6,global,local-global,GSLD,832,230,1,0.561779983720044,0,23,30,2,4,2,5,same
6,global,local-global,GSLD,839,755,2,0.468214743799763,0,23,37,2,4,2,6,same
6,global,local-global,GSLD,846,565,2,0.554928997589741,0,23,44,2,4,2,7,same
6,global,local-global,GSLD,858,1042,2,0.741236057132483,0,24,31,3,4,3,5,same
6,global,local-global,GSLD,865,623,2,0.601524090045132,0,24,38,3,4,3,6,same
6,global,local-global,GSLD,872,137,1,0.685704156319844,0,24,45,3,4,3,7,same
6,global,local-global,GSLD,883,226,1,0.535304732969962,0,25,32,4,4,4,5,same
6,global,local-global,GSLD,890,456,1,0.674212633632123,0,25,39,4,4,4,6,same
6,global,local-global,GSLD,897,287,1,0.608617879624944,0,25,46,4,4,4,7,same
6,global,local-global,GSLD,907,1198,2,0.71137534067384,0,26,33,5,4,5,5,same
6,global,local-global,GSLD,914,1160,2,0.760624849353917,0,26,40,5,4,5,6,same
6,global,local-global,GSLD,921,814,1,2.56731871701777,1,26,47,5,4,5,7,same
6,global,local-global,GSLD,930,881,2,0.645982336340239,0,27,34,6,4,6,5,same
6,global,local-global,GSLD,937,935,1,0.562746212352067,0,27,41,6,4,6,6,same
6,global,local-global,GSLD,944,636,1,2.70824675395852,1,27,48,6,4,6,7,same
6,global,local-global,GSLD,952,353,2,0.613201234198641,0,28,35,7,4,7,5,same
6,global,local-global,GSLD,959,85,1,0.643357830675086,0,28,42,7,4,7,6,same
6,global,local-global,GSLD,966,442,1,0.484350321959937,0,28,49,7,4,7,7,same
6,global,local-global,GSLD,973,1131,2,0.554304101329762,0,29,36,1,5,1,6,same
6,global,local-global,GSLD,980,515,1,0.742152141581755,0,29,43,1,5,1,7,same
6,global,local-global,GSLD,993,259,2,0.548993216158124,0,30,37,2,5,2,6,same
6,global,local-global,GSLD,1000,674,1,0.79089991512592,0,30,44,2,5,2,7,same
6,global,local-global,GSLD,1012,821,2,0.849527266400401,0,31,38,3,5,3,6,same
6,global,local-global,GSLD,1019,765,1,1.0984227747249,0,31,45,3,5,3,7,same
6,global,local-global,GSLD,1030,169,1,0.611429472948657,0,32,39,4,5,4,6,same
6,global,local-global,GSLD,1037,29,1,0.74333331573871,0,32,46,4,5,4,7,same
6,global,local-global,GSLD,1047,1181,2,0.847227085119812,0,33,40,5,5,5,6,same
6,global,local-global,GSLD,1054,668,2,0.956158732442418,0,33,47,5,5,5,7,same
6,global,local-global,GSLD,1063,1128,2,0.453001701360336,0,34,41,6,5,6,6,same
6,global,local-global,GSLD,1070,929,2,0.606307141628349,0,34,48,6,5,6,7,same
6,global,local-global,GSLD,1078,367,2,0.538101077778265,0,35,42,7,5,7,6,same
6,global,local-global,GSLD,1085,1098,2,0.459425728826318,0,35,49,7,5,7,7,same
6,global,local-global,GSLD,1092,895,1,0.627140145079466,0,36,43,1,6,1,7,same
6,global,local-global,GSLD,1105,676,1,0.59219932401902,0,37,44,2,6,2,7,same
6,global,local-global,GSLD,1117,154,1,0.644141370255966,0,38,45,3,6,3,7,same
6,global,local-global,GSLD,1128,1135,2,0.608275960752508,0,39,46,4,6,4,7,same
6,global,local-global,GSLD,1138,221,1,1.10620597357047,0,40,47,5,6,5,7,same
6,global,local-global,GSLD,1147,1161,2,0.78232907137135,0,41,48,6,6,6,7,same
6,global,local-global,GSLD,1155,296,1,0.543234258977463,0,42,49,7,6,7,7,same
12,global,local-global,GSLD,7,1133,2,0.729801772719838,0,1,8,1,1,1,2,same
12,global,local-global,GSLD,14,440,2,0.667134293571507,0,1,15,1,1,1,3,same
12,global,local-global,GSLD,21,671,2,0.60465478401693,0,1,22,1,1,1,4,same
12,global,local-global,GSLD,28,396,1,0.554614697522084,0,1,29,1,1,1,5,same
12,global,local-global,GSLD,35,741,2,0.762718445008431,0,1,36,1,1,1,6,same
12,global,local-global,GSLD,42,1096,1,0.926888038740799,0,1,43,1,1,1,7,same
12,global,local-global,GSLD,55,652,1,0.529335866182009,0,2,9,2,1,2,2,same
12,global,local-global,GSLD,62,703,2,1.02881154538045,0,2,16,2,1,2,3,same
12,global,local-global,GSLD,69,474,2,0.947701052687989,0,2,23,2,1,2,4,same
12,global,local-global,GSLD,76,820,2,0.753149883610604,0,2,30,2,1,2,5,same
12,global,local-global,GSLD,83,1105,2,0.828094621723722,0,2,37,2,1,2,6,same
12,global,local-global,GSLD,90,307,1,0.588098211033866,0,2,44,2,1,2,7,same
12,global,local-global,GSLD,102,314,1,0.960737521135343,0,3,10,3,1,3,2,same
12,global,local-global,GSLD,109,33,1,0.665627604375914,0,3,17,3,1,3,3,same
12,global,local-global,GSLD,116,665,1,0.73212632025934,0,3,24,3,1,3,4,same
12,global,local-global,GSLD,123,292,1,0.880455150337184,0,3,31,3,1,3,5,same
12,global,local-global,GSLD,130,1227,2,0.50526461485606,0,3,38,3,1,3,6,same
12,global,local-global,GSLD,137,905,2,0.893686919486754,0,3,45,3,1,3,7,same
12,global,local-global,GSLD,148,529,1,0.765685784043853,0,4,11,4,1,4,2,same
12,global,local-global,GSLD,155,1033,2,0.536546156945406,0,4,18,4,1,4,3,same
12,global,local-global,GSLD,162,261,1,0.673451655451572,0,4,25,4,1,4,4,same
12,global,local-global,GSLD,169,623,1,0.526913081803286,0,4,32,4,1,4,5,same
12,global,local-global,GSLD,176,960,2,0.601518243021019,0,4,39,4,1,4,6,same
12,global,local-global,GSLD,183,25,1,0.774663164938829,0,4,46,4,1,4,7,same
12,global,local-global,GSLD,193,38,1,0.713488006014813,0,5,12,5,1,5,2,same
12,global,local-global,GSLD,200,1234,2,0.798190448094829,0,5,19,5,1,5,3,same
12,global,local-global,GSLD,207,1070,2,0.810431931254243,0,5,26,5,1,5,4,same
12,global,local-global,GSLD,214,242,1,0.710778428714548,0,5,33,5,1,5,5,same
12,global,local-global,GSLD,221,628,1,0.610785349280377,0,5,40,5,1,5,6,same
12,global,local-global,GSLD,228,80,1,0.760753708220818,0,5,47,5,1,5,7,same
12,global,local-global,GSLD,237,338,1,0.814568435301226,0,6,13,6,1,6,2,same
12,global,local-global,GSLD,244,350,1,1.66094038753999,1,6,20,6,1,6,3,same
12,global,local-global,GSLD,251,587,2,0.652752420292018,0,6,27,6,1,6,4,same
12,global,local-global,GSLD,258,72,1,0.6226283134406,0,6,34,6,1,6,5,same
12,global,local-global,GSLD,265,777,1,1.32594426129708,0,6,41,6,1,6,6,same
12,global,local-global,GSLD,272,15,1,0.635056299972803,0,6,48,6,1,6,7,same
12,global,local-global,GSLD,280,753,2,1.04811112551306,1,7,14,7,1,7,2,same
12,global,local-global,GSLD,287,979,1,0.676554473353463,0,7,21,7,1,7,3,same
12,global,local-global,GSLD,294,89,1,0.493643050139781,0,7,28,7,1,7,4,same
12,global,local-global,GSLD,301,1185,2,0.435104450685685,0,7,35,7,1,7,5,same
12,global,local-global,GSLD,308,1094,2,0.55577418547,0,7,42,7,1,7,6,same
12,global,local-global,GSLD,315,826,2,0.593053746400983,0,7,49,7,1,7,7,same
12,global,local-global,GSLD,322,1097,1,0.497069316500529,0,8,15,1,2,1,3,same
12,global,local-global,GSLD,329,759,1,0.537296862344192,0,8,22,1,2,1,4,same
12,global,local-global,GSLD,336,788,1,0.722835167967787,0,8,29,1,2,1,5,same
12,global,local-global,GSLD,343,183,2,0.760618815844282,0,8,36,1,2,1,6,same
12,global,local-global,GSLD,350,287,1,0.681843720730285,0,8,43,1,2,1,7,same
12,global,local-global,GSLD,363,431,2,0.60933320352342,0,9,16,2,2,2,3,same
12,global,local-global,GSLD,370,825,2,0.544498649023808,0,9,23,2,2,2,4,same
12,global,local-global,GSLD,377,203,1,0.558376435356877,0,9,30,2,2,2,5,same
12,global,local-global,GSLD,384,436,1,0.488636783508809,0,9,37,2,2,2,6,same
12,global,local-global,GSLD,391,1011,2,0.621834794374081,0,9,44,2,2,2,7,same
12,global,local-global,GSLD,403,444,2,0.541904316732143,0,10,17,3,2,3,3,same
12,global,local-global,GSLD,410,27,1,0.622464683123326,0,10,24,3,2,3,4,same
12,global,local-global,GSLD,417,895,2,0.665037010363449,0,10,31,3,2,3,5,same
12,global,local-global,GSLD,424,832,1,0.817139894536922,0,10,38,3,2,3,6,same
12,global,local-global,GSLD,431,198,1,0.446689653110298,0,10,45,3,2,3,7,same
12,global,local-global,GSLD,442,319,1,0.712614138011304,0,11,18,4,2,4,3,same
12,global,local-global,GSLD,449,326,2,0.628427512649068,0,11,25,4,2,4,4,same
12,global,local-global,GSLD,456,49,1,0.65689478922468,0,11,32,4,2,4,5,same
12,global,local-global,GSLD,463,812,2,0.539414379409209,0,11,39,4,2,4,6,same
12,global,local-global,GSLD,470,163,1,0.579206750718186,0,11,46,4,2,4,7,same
12,global,local-global,GSLD,480,197,1,0.444429912560736,0,12,19,5,2,5,3,same
12,global,local-global,GSLD,487,1148,2,0.531930784962242,0,12,26,5,2,5,4,same
12,global,local-global,GSLD,494,510,1,0.598251208312831,0,12,33,5,2,5,5,same
12,global,local-global,GSLD,501,511,1,0.580692619569163,0,12,40,5,2,5,6,same
12,global,local-global,GSLD,508,122,2,0.61490191271514,0,12,47,5,2,5,7,same
12,global,local-global,GSLD,517,1090,2,0.635649239939994,0,13,20,6,2,6,3,same
12,global,local-global,GSLD,524,112,2,0.854695398351396,0,13,27,6,2,6,4,same
12,global,local-global,GSLD,531,82,1,0.573351248604922,0,13,34,6,2,6,5,same
12,global,local-global,GSLD,538,744,2,0.68264838308005,0,13,41,6,2,6,6,same
12,global,local-global,GSLD,545,457,2,0.606930359757825,0,13,48,6,2,6,7,same
12,global,local-global,GSLD,553,7,1,0.70086999717887,0,14,21,7,2,7,3,same
12,global,local-global,GSLD,560,711,1,0.508465376353342,0,14,28,7,2,7,4,same
12,global,local-global,GSLD,567,1184,2,0.555040781484422,0,14,35,7,2,7,5,same
12,global,local-global,GSLD,574,18,1,0.512216557393913,0,14,42,7,2,7,6,same
12,global,local-global,GSLD,581,268,2,0.627858618714527,0,14,49,7,2,7,7,same
12,global,local-global,GSLD,588,98,1,0.693126881528769,0,15,22,1,3,1,4,same
12,global,local-global,GSLD,595,1223,2,0.50627073603664,0,15,29,1,3,1,5,same
12,global,local-global,GSLD,602,646,2,0.73867886406606,0,15,36,1,3,1,6,same
12,global,local-global,GSLD,609,1204,2,0.523161314274148,0,15,43,1,3,1,7,same
12,global,local-global,GSLD,622,1158,2,0.75318184723983,0,16,23,2,3,2,4,same
12,global,local-global,GSLD,629,932,2,0.673927590944913,0,16,30,2,3,2,5,same
12,global,local-global,GSLD,636,657,2,0.525259477215513,0,16,37,2,3,2,6,same
12,global,local-global,GSLD,643,597,2,0.583120975588827,0,16,44,2,3,2,7,same
12,global,local-global,GSLD,655,40,1,0.798735589242369,0,17,24,3,3,3,4,same
12,global,local-global,GSLD,662,358,1,0.655802454220066,0,17,31,3,3,3,5,same
12,global,local-global,GSLD,669,414,1,0.602369824458037,0,17,38,3,3,3,6,same
12,global,local-global,GSLD,676,851,2,0.651982654013409,0,17,45,3,3,3,7,same
12,global,local-global,GSLD,687,480,1,0.356603245745646,0,18,25,4,3,4,4,same
12,global,local-global,GSLD,694,1104,1,0.463765854985468,0,18,32,4,3,4,5,same
12,global,local-global,GSLD,701,403,1,0.58700646251782,0,18,39,4,3,4,6,same
12,global,local-global,GSLD,708,1145,2,0.565705196816452,0,18,46,4,3,4,7,same
12,global,local-global,GSLD,718,231,1,1.89547570969535,1,19,26,5,3,5,4,same
12,global,local-global,GSLD,725,129,1,0.567628292913469,0,19,33,5,3,5,5,same
12,global,local-global,GSLD,732,1020,2,0.622901617124626,0,19,40,5,3,5,6,same
12,global,local-global,GSLD,739,382,2,0.630351488479391,0,19,47,5,3,5,7,same
12,global,local-global,GSLD,748,619,2,0.564038689479275,0,20,27,6,3,6,4,same
12,global,local-global,GSLD,755,1127,2,0.541200237175872,0,20,34,6,3,6,5,same
12,global,local-global,GSLD,762,814,2,0.593504756129732,0,20,41,6,3,6,6,same
12,global,local-global,GSLD,769,1056,2,0.717971418064735,0,20,48,6,3,6,7,same
12,global,local-global,GSLD,777,1212,2,0.544173734342621,0,21,28,7,3,7,4,same
12,global,local-global,GSLD,784,64,1,0.727484556289255,0,21,35,7,3,7,5,same
12,global,local-global,GSLD,791,755,1,0.669487579051747,0,21,42,7,3,7,6,same
12,global,local-global,GSLD,798,418,1,0.612966500358198,0,21,49,7,3,7,7,same
12,global,local-global,GSLD,805,359,2,0.860029805350678,0,22,29,1,4,1,5,same
12,global,local-global,GSLD,812,395,1,0.587902617087821,0,22,36,1,4,1,6,same
12,global,local-global,GSLD,819,881,2,0.673954276176119,0,22,43,1,4,1,7,same
12,global,local-global,GSLD,832,591,1,0.792673056655076,0,23,30,2,4,2,5,same
12,global,local-global,GSLD,839,961,2,0.817362466958002,0,23,37,2,4,2,6,same
12,global,local-global,GSLD,846,1031,1,0.788213104148781,0,23,44,2,4,2,7,same
12,global,local-global,GSLD,858,541,1,0.735055537536937,0,24,31,3,4,3,5,same
12,global,local-global,GSLD,865,1216,2,0.565199936893805,0,24,38,3,4,3,6,same
12,global,local-global,GSLD,872,942,2,1.18070065446318,0,24,45,3,4,3,7,same
12,global,local-global,GSLD,883,974,2,0.523689740495684,0,25,32,4,4,4,5,same
12,global,local-global,GSLD,890,121,1,0.668760626440417,0,25,39,4,4,4,6,same
12,global,local-global,GSLD,897,134,1,0.602636970012099,0,25,46,4,4,4,7,same
12,global,local-global,GSLD,907,621,1,0.595547495899154,0,26,33,5,4,5,5,same
12,global,local-global,GSLD,914,499,1,0.533226924752853,0,26,40,5,4,5,6,same
12,global,local-global,GSLD,921,1015,2,1.08376112788847,0,26,47,5,4,5,7,same
12,global,local-global,GSLD,930,827,2,0.686990158134904,0,27,34,6,4,6,5,same
12,global,local-global,GSLD,937,910,2,0.758247349217527,0,27,41,6,4,6,6,same
12,global,local-global,GSLD,944,632,1,1.06138570832809,0,27,48,6,4,6,7,same
12,global,local-global,GSLD,952,1069,2,0.704629975549324,0,28,35,7,4,7,5,same
12,global,local-global,GSLD,959,194,1,0.801931658830654,0,28,42,7,4,7,6,same
12,global,local-global,GSLD,966,85,1,0.573107562594032,0,28,49,7,4,7,7,same
12,global,local-global,GSLD,973,883,2,0.736634951318592,0,29,36,1,5,1,6,same
12,global,local-global,GSLD,980,707,2,0.637043323325997,0,29,43,1,5,1,7,same
12,global,local-global,GSLD,993,770,2,1.30986596976163,1,30,37,2,5,2,6,same
12,global,local-global,GSLD,1000,138,1,0.64453366239195,0,30,44,2,5,2,7,same
12,global,local-global,GSLD,1012,1128,2,0.526428935469994,0,31,38,3,5,3,6,same
12,global,local-global,GSLD,1019,888,2,1.21724299923244,0,31,45,3,5,3,7,same
12,global,local-global,GSLD,1030,1126,2,0.573804017798466,0,32,39,4,5,4,6,same
12,global,local-global,GSLD,1037,1226,2,0.469220198901894,0,32,46,4,5,4,7,same
12,global,local-global,GSLD,1047,446,1,0.539653666755839,0,33,40,5,5,5,6,same
12,global,local-global,GSLD,1054,1134,2,0.923600183687995,0,33,47,5,5,5,7,same
12,global,local-global,GSLD,1063,283,1,0.566526574090858,0,34,41,6,5,6,6,same
12,global,local-global,GSLD,1070,298,1,0.875012536193935,0,34,48,6,5,6,7,same
12,global,local-global,GSLD,1078,108,1,0.749868186688218,0,35,42,7,5,7,6,same
12,global,local-global,GSLD,1085,464,2,0.628668852705232,0,35,49,7,5,7,7,same
12,global,local-global,GSLD,1092,507,1,0.510864701187529,0,36,43,1,6,1,7,same
12,global,local-global,GSLD,1105,1235,2,0.532392644729953,0,37,44,2,6,2,7,same
12,global,local-global,GSLD,1117,195,1,0.53676755638935,0,38,45,3,6,3,7,same
12,global,local-global,GSLD,1128,594,1,0.466387752241644,0,39,46,4,6,4,7,same
12,global,local-global,GSLD,1138,986,2,0.7354490713833,0,40,47,5,6,5,7,same
12,global,local-global,GSLD,1147,209,1,0.632649350785869,0,41,48,6,6,6,7,same
12,global,local-global,GSLD,1155,174,1,0.531615840587619,0,42,49,7,6,7,7,same
11,global,global-local,GSLD,7,448,1,0.651458609325346,0,1,8,1,1,1,2,same
11,global,global-local,GSLD,14,953,2,0.679871888947673,0,1,15,1,1,1,3,same
11,global,global-local,GSLD,21,301,1,0.772450666583609,0,1,22,1,1,1,4,same
11,global,global-local,GSLD,28,1233,2,0.725062944169622,0,1,29,1,1,1,5,same
11,global,global-local,GSLD,35,453,1,0.717949800658971,0,1,36,1,1,1,6,same
11,global,global-local,GSLD,42,538,1,0.900221866031643,0,1,43,1,1,1,7,same
11,global,global-local,GSLD,55,1193,2,0.679493608244229,0,2,9,2,1,2,2,same
11,global,global-local,GSLD,62,1146,2,0.597875880543143,0,2,16,2,1,2,3,same
11,global,global-local,GSLD,69,1063,2,0.670589642890263,0,2,23,2,1,2,4,same
11,global,global-local,GSLD,76,773,2,0.832042487047147,0,2,30,2,1,2,5,same
11,global,global-local,GSLD,83,1138,2,0.82162422593683,0,2,37,2,1,2,6,same
11,global,global-local,GSLD,90,705,1,0.830123518884648,0,2,44,2,1,2,7,same
11,global,global-local,GSLD,102,923,2,0.871342333499342,0,3,10,3,1,3,2,same
11,global,global-local,GSLD,109,872,2,0.784540107473731,0,3,17,3,1,3,3,same
11,global,global-local,GSLD,116,951,2,0.761367335158866,0,3,24,3,1,3,4,same
11,global,global-local,GSLD,123,1225,2,0.683914800581988,0,3,31,3,1,3,5,same
11,global,global-local,GSLD,130,817,1,0.687284431303851,0,3,38,3,1,3,6,same
11,global,global-local,GSLD,137,1187,2,0.844698175962549,0,3,45,3,1,3,7,same
11,global,global-local,GSLD,148,815,2,0.680851313401945,0,4,11,4,1,4,2,same
11,global,global-local,GSLD,155,97,1,1.20972351497039,1,4,18,4,1,4,3,same
11,global,global-local,GSLD,162,450,1,0.67073655652348,0,4,25,4,1,4,4,same
11,global,global-local,GSLD,169,115,1,2.64355664799223,1,4,32,4,1,4,5,same
11,global,global-local,GSLD,176,696,2,0.712051847367547,0,4,39,4,1,4,6,same
11,global,global-local,GSLD,183,653,1,0.645690268429462,0,4,46,4,1,4,7,same
11,global,global-local,GSLD,193,616,2,0.702687200566288,0,5,12,5,1,5,2,same
11,global,global-local,GSLD,200,867,2,0.616214283974841,0,5,19,5,1,5,3,same
11,global,global-local,GSLD,207,516,2,0.711915783584118,0,5,26,5,1,5,4,same
11,global,global-local,GSLD,214,92,1,0.720079315768089,0,5,33,5,1,5,5,same
11,global,global-local,GSLD,221,929,2,0.675560955074616,0,5,40,5,1,5,6,same
11,global,global-local,GSLD,228,547,2,0.573076208005659,0,5,47,5,1,5,7,same
11,global,global-local,GSLD,237,502,1,1.24068769672886,1,6,13,6,1,6,2,same
11,global,global-local,GSLD,244,952,2,1.18444615305634,0,6,20,6,1,6,3,same
11,global,global-local,GSLD,251,722,1,0.827387874945998,0,6,27,6,1,6,4,same
11,global,global-local,GSLD,258,492,2,1.77196564624319,1,6,34,6,1,6,5,same
11,global,global-local,GSLD,265,624,1,0.857051533588674,0,6,41,6,1,6,6,same
11,global,global-local,GSLD,272,424,1,1.03478745609755,0,6,48,6,1,6,7,same
11,global,global-local,GSLD,280,762,2,0.618593640276231,0,7,14,7,1,7,2,same
11,global,global-local,GSLD,287,385,1,0.627110820962116,0,7,21,7,1,7,3,same
11,global,global-local,GSLD,294,383,1,0.660470780567266,0,7,28,7,1,7,4,same
11,global,global-local,GSLD,301,670,2,0.721942861448042,0,7,35,7,1,7,5,same
11,global,global-local,GSLD,308,651,2,0.678928533103317,0,7,42,7,1,7,6,same
11,global,global-local,GSLD,315,1231,2,0.701750002743211,0,7,49,7,1,7,7,same
11,global,global-local,GSLD,322,674,1,0.56913417117903,0,8,15,1,2,1,3,same
11,global,global-local,GSLD,329,1189,2,0.647775797464419,0,8,22,1,2,1,4,same
11,global,global-local,GSLD,336,661,2,0.668290927773342,0,8,29,1,2,1,5,same
11,global,global-local,GSLD,343,566,1,0.630123870796524,0,8,36,1,2,1,6,same
11,global,global-local,GSLD,350,648,1,0.861708784825169,0,8,43,1,2,1,7,same
11,global,global-local,GSLD,363,114,1,0.955021837668028,0,9,16,2,2,2,3,same
11,global,global-local,GSLD,370,793,2,0.635720665799454,0,9,23,2,2,2,4,same
11,global,global-local,GSLD,377,569,2,0.484025411074981,0,9,30,2,2,2,5,same
11,global,global-local,GSLD,384,1171,2,0.616619249631185,0,9,37,2,2,2,6,same
11,global,global-local,GSLD,391,736,1,0.943905956519302,1,9,44,2,2,2,7,same
11,global,global-local,GSLD,403,342,1,0.792458197101951,0,10,17,3,2,3,3,same
11,global,global-local,GSLD,410,375,1,0.869205780618358,0,10,24,3,2,3,4,same
11,global,global-local,GSLD,417,307,2,0.962867790018208,0,10,31,3,2,3,5,same
11,global,global-local,GSLD,424,930,1,1.12749115435872,0,10,38,3,2,3,6,same
11,global,global-local,GSLD,431,234,2,0.865763426176272,0,10,45,3,2,3,7,same
11,global,global-local,GSLD,442,178,1,0.859806531399954,0,11,18,4,2,4,3,same
11,global,global-local,GSLD,449,886,2,0.671593113045674,0,11,25,4,2,4,4,same
11,global,global-local,GSLD,456,1037,2,0.577732286357787,0,11,32,4,2,4,5,same
11,global,global-local,GSLD,463,675,2,0.656540180149022,0,11,39,4,2,4,6,same
11,global,global-local,GSLD,470,18,1,2.18928433395922,1,11,46,4,2,4,7,same
11,global,global-local,GSLD,480,1088,2,0.761864085216075,0,12,19,5,2,5,3,same
11,global,global-local,GSLD,487,604,2,0.55918274942087,0,12,26,5,2,5,4,same
11,global,global-local,GSLD,494,654,1,1.23341942881234,0,12,33,5,2,5,5,same
11,global,global-local,GSLD,501,725,2,0.728527291619685,0,12,40,5,2,5,6,same
11,global,global-local,GSLD,508,902,1,0.714189573132899,0,12,47,5,2,5,7,same
11,global,global-local,GSLD,517,76,1,3.88102983840508,1,13,20,6,2,6,3,same
11,global,global-local,GSLD,524,599,1,0.692819059244357,0,13,27,6,2,6,4,same
11,global,global-local,GSLD,531,1030,2,0.614088581001852,0,13,34,6,2,6,5,same
11,global,global-local,GSLD,538,16,1,0.644404114049394,0,13,41,6,2,6,6,same
11,global,global-local,GSLD,545,570,2,0.574040677165613,0,13,48,6,2,6,7,same
11,global,global-local,GSLD,553,987,2,0.870322148548439,0,14,21,7,2,7,3,same
11,global,global-local,GSLD,560,343,1,0.758384782413486,0,14,28,7,2,7,4,same
11,global,global-local,GSLD,567,931,2,0.808038963528816,0,14,35,7,2,7,5,same
11,global,global-local,GSLD,574,999,2,0.60757247597212,0,14,42,7,2,7,6,same
11,global,global-local,GSLD,581,595,1,0.698896476009395,0,14,49,7,2,7,7,same
11,global,global-local,GSLD,588,490,2,0.760103467095178,0,15,22,1,3,1,4,same
11,global,global-local,GSLD,595,1258,2,0.779512786190026,0,15,29,1,3,1,5,same
11,global,global-local,GSLD,602,150,1,2.66783347201999,1,15,36,1,3,1,6,same
11,global,global-local,GSLD,609,1188,2,0.584458645083942,0,15,43,1,3,1,7,same
11,global,global-local,GSLD,622,828,1,0.626650726073422,0,16,23,2,3,2,4,same
11,global,global-local,GSLD,629,134,1,1.76584776223172,1,16,30,2,3,2,5,same
11,global,global-local,GSLD,636,704,1,0.734273639507592,0,16,37,2,3,2,6,same
11,global,global-local,GSLD,643,1122,2,0.86019126343308,0,16,44,2,3,2,7,same
11,global,global-local,GSLD,655,1124,1,0.744315672607627,0,17,24,3,3,3,4,same
11,global,global-local,GSLD,662,148,1,0.969490341492929,0,17,31,3,3,3,5,same
11,global,global-local,GSLD,669,955,2,0.615775888902135,0,17,38,3,3,3,6,same
11,global,global-local,GSLD,676,939,2,0.765353064925876,0,17,45,3,3,3,7,same
11,global,global-local,GSLD,687,353,1,0.608084181207232,0,18,25,4,3,4,4,same
11,global,global-local,GSLD,694,387,1,0.675299384223763,0,18,32,4,3,4,5,same
11,global,global-local,GSLD,701,686,1,1.1403808494797,1,18,39,4,3,4,6,same
11,global,global-local,GSLD,708,246,1,0.683069973718375,0,18,46,4,3,4,7,same
11,global,global-local,GSLD,718,524,2,1.26503783097723,0,19,26,5,3,5,4,same
11,global,global-local,GSLD,725,649,1,0.673122657346539,0,19,33,5,3,5,5,same
11,global,global-local,GSLD,732,1,1,1.60971811925992,1,19,40,5,3,5,6,same
11,global,global-local,GSLD,739,1199,2,0.651681179122534,0,19,47,5,3,5,7,same
11,global,global-local,GSLD,748,1014,2,0.691282477113418,0,20,27,6,3,6,4,same
11,global,global-local,GSLD,755,591,1,0.854694463545457,0,20,34,6,3,6,5,same
11,global,global-local,GSLD,762,1061,2,0.688637444633059,0,20,41,6,3,6,6,same
11,global,global-local,GSLD,769,1045,2,0.747563901590183,0,20,48,6,3,6,7,same
11,global,global-local,GSLD,777,881,1,0.837850122246891,0,21,28,7,3,7,4,same
11,global,global-local,GSLD,784,376,1,0.895739972766023,0,21,35,7,3,7,5,same
11,global,global-local,GSLD,791,1240,2,0.603923093469348,0,21,42,7,3,7,6,same
11,global,global-local,GSLD,798,166,1,0.807648366666399,0,21,49,7,3,7,7,same
11,global,global-local,GSLD,805,73,1,1.18280107184546,0,22,29,1,4,1,5,same
11,global,global-local,GSLD,812,841,2,0.678713880828582,0,22,36,1,4,1,6,same
11,global,global-local,GSLD,819,893,2,0.805408592976164,0,22,43,1,4,1,7,same
11,global,global-local,GSLD,832,757,2,0.534970145148691,0,23,30,2,4,2,5,same
11,global,global-local,GSLD,839,459,1,0.766913106257562,0,23,37,2,4,2,6,same
11,global,global-local,GSLD,846,367,1,0.622351815109141,0,23,44,2,4,2,7,same
11,global,global-local,GSLD,858,1219,2,1.01912839437136,0,24,31,3,4,3,5,same
11,global,global-local,GSLD,865,461,1,0.940340734145138,0,24,38,3,4,3,6,same
11,global,global-local,GSLD,872,401,1,1.86854012386175,1,24,45,3,4,3,7,same
11,global,global-local,GSLD,883,800,2,0.748114021436777,0,25,32,4,4,4,5,same
11,global,global-local,GSLD,890,935,2,0.80987875664141,0,25,39,4,4,4,6,same
11,global,global-local,GSLD,897,338,1,0.784741563897114,0,25,46,4,4,4,7,same
11,global,global-local,GSLD,907,414,2,0.732553781883325,0,26,33,5,4,5,5,same
11,global,global-local,GSLD,914,684,2,1.37187046027975,0,26,40,5,4,5,6,same
11,global,global-local,GSLD,921,329,1,1.08049784088507,0,26,47,5,4,5,7,same
11,global,global-local,GSLD,930,422,1,0.843345455941744,0,27,34,6,4,6,5,same
11,global,global-local,GSLD,937,220,1,1.46466858207714,1,27,41,6,4,6,6,same
11,global,global-local,GSLD,944,477,1,0.897486808535177,0,27,48,6,4,6,7,same
11,global,global-local,GSLD,952,369,2,1.48246361024212,1,28,35,7,4,7,5,same
11,global,global-local,GSLD,959,905,2,0.755555008188821,0,28,42,7,4,7,6,same
11,global,global-local,GSLD,966,10,1,0.87961377837928,0,28,49,7,4,7,7,same
11,global,global-local,GSLD,973,142,2,1.09725596936187,0,29,36,1,5,1,6,same
11,global,global-local,GSLD,980,328,1,0.628423367044888,0,29,43,1,5,1,7,same
11,global,global-local,GSLD,993,1097,2,0.73550407809671,0,30,37,2,5,2,6,same
11,global,global-local,GSLD,1000,217,1,0.672033267561346,0,30,44,2,5,2,7,same
11,global,global-local,GSLD,1012,441,1,0.918050323671196,0,31,38,3,5,3,6,same
11,global,global-local,GSLD,1019,418,1,0.688452702888753,0,31,45,3,5,3,7,same
11,global,global-local,GSLD,1030,917,2,0.73013483802788,0,32,39,4,5,4,6,same
11,global,global-local,GSLD,1037,400,1,0.648642617394216,0,32,46,4,5,4,7,same
11,global,global-local,GSLD,1047,1085,2,1.00939719652524,0,33,40,5,5,5,6,same
11,global,global-local,GSLD,1054,130,1,1.02293847280089,0,33,47,5,5,5,7,same
11,global,global-local,GSLD,1063,1002,1,0.837504684517626,0,34,41,6,5,6,6,same
11,global,global-local,GSLD,1070,956,1,0.683136832667515,0,34,48,6,5,6,7,same
11,global,global-local,GSLD,1078,548,1,1.04383335006423,0,35,42,7,5,7,6,same
11,global,global-local,GSLD,1085,878,1,0.697512085956987,0,35,49,7,5,7,7,same
11,global,global-local,GSLD,1092,1112,2,0.754116075288039,0,36,43,1,6,1,7,same
11,global,global-local,GSLD,1105,237,1,0.633532209263649,0,37,44,2,6,2,7,same
11,global,global-local,GSLD,1117,921,2,0.804132702061906,0,38,45,3,6,3,7,same
11,global,global-local,GSLD,1128,52,1,2.49996481108246,1,39,46,4,6,4,7,same
11,global,global-local,GSLD,1138,470,2,0.705160980403889,0,40,47,5,6,5,7,same
11,global,global-local,GSLD,1147,969,1,0.829213006072678,0,41,48,6,6,6,7,same
11,global,global-local,GSLD,1155,1013,2,0.548144283879083,0,42,49,7,6,7,7,same
2,global,local-global,GSLD,7,1058,2,0.457853371357487,0,1,8,1,1,1,2,same
2,global,local-global,GSLD,14,626,1,0.603394673453295,0,1,15,1,1,1,3,same
2,global,local-global,GSLD,21,1219,2,0.543923668235948,0,1,22,1,1,1,4,same
2,global,local-global,GSLD,28,1201,2,0.740334048248769,0,1,29,1,1,1,5,same
2,global,local-global,GSLD,35,1024,2,0.414878337294795,0,1,36,1,1,1,6,same
2,global,local-global,GSLD,42,229,1,0.829518269783875,0,1,43,1,1,1,7,same
2,global,local-global,GSLD,55,384,1,1.07881346538488,0,2,9,2,1,2,2,same
2,global,local-global,GSLD,62,671,2,0.918949400118436,0,2,16,2,1,2,3,same
2,global,local-global,GSLD,69,1239,2,0.579019906945177,0,2,23,2,1,2,4,same
2,global,local-global,GSLD,76,137,1,0.664052717671439,0,2,30,2,1,2,5,same
2,global,local-global,GSLD,83,1028,2,1.63075316567847,1,2,37,2,1,2,6,same
2,global,local-global,GSLD,90,9,1,0.846691040853329,0,2,44,2,1,2,7,same
2,global,local-global,GSLD,102,977,1,0.61517415868002,0,3,10,3,1,3,2,same
2,global,local-global,GSLD,109,1144,2,0.578029339332716,0,3,17,3,1,3,3,same
2,global,local-global,GSLD,116,7,1,0.67072277420084,0,3,24,3,1,3,4,same
2,global,local-global,GSLD,123,1067,2,0.69133555375447,0,3,31,3,1,3,5,same
2,global,local-global,GSLD,130,77,1,1.45689007514738,0,3,38,3,1,3,6,same
2,global,local-global,GSLD,137,538,1,0.630014785208914,0,3,45,3,1,3,7,same
2,global,local-global,GSLD,148,398,1,0.604823636153014,0,4,11,4,1,4,2,same
2,global,local-global,GSLD,155,1076,2,0.521569917706074,0,4,18,4,1,4,3,same
2,global,local-global,GSLD,162,97,1,0.513476176813128,0,4,25,4,1,4,4,same
2,global,local-global,GSLD,169,58,1,0.611123036236677,0,4,32,4,1,4,5,same
2,global,local-global,GSLD,176,1013,2,0.532886375622184,0,4,39,4,1,4,6,same
2,global,local-global,GSLD,183,771,1,0.533752315874153,0,4,46,4,1,4,7,same
2,global,local-global,GSLD,193,65,1,0.669702589257213,0,5,12,5,1,5,2,same
2,global,local-global,GSLD,200,530,1,0.761169104378496,0,5,19,5,1,5,3,same
2,global,local-global,GSLD,207,19,1,0.896016498896643,0,5,26,5,1,5,4,same
2,global,local-global,GSLD,214,334,2,0.745404475914256,0,5,33,5,1,5,5,same
2,global,local-global,GSLD,221,96,1,0.829924701618438,0,5,40,5,1,5,6,same
2,global,local-global,GSLD,228,1141,2,0.696942318936635,0,5,47,5,1,5,7,same
2,global,local-global,GSLD,237,737,1,0.945417613096652,0,6,13,6,1,6,2,same
2,global,local-global,GSLD,244,806,2,1.01550804271392,0,6,20,6,1,6,3,same
2,global,local-global,GSLD,251,589,1,0.857355331085273,0,6,27,6,1,6,4,same
2,global,local-global,GSLD,258,834,1,0.775092766751186,0,6,34,6,1,6,5,same
2,global,local-global,GSLD,265,760,1,0.648913278710097,0,6,41,6,1,6,6,same
2,global,local-global,GSLD,272,1261,2,0.691049350672984,0,6,48,6,1,6,7,same
2,global,local-global,GSLD,280,28,1,0.671475230243232,0,7,14,7,1,7,2,same
2,global,local-global,GSLD,287,1271,2,0.857794019408175,0,7,21,7,1,7,3,same
2,global,local-global,GSLD,294,394,2,0.660368732787902,0,7,28,7,1,7,4,same
2,global,local-global,GSLD,301,734,1,0.688953851516999,0,7,35,7,1,7,5,same
2,global,local-global,GSLD,308,613,2,0.852863760883338,0,7,42,7,1,7,6,same
2,global,local-global,GSLD,315,239,1,0.74819788831519,0,7,49,7,1,7,7,same
2,global,local-global,GSLD,322,616,1,0.690037376480177,0,8,15,1,2,1,3,same
2,global,local-global,GSLD,329,647,1,0.509142956674623,0,8,22,1,2,1,4,same
2,global,local-global,GSLD,336,283,1,1.06464787931327,0,8,29,1,2,1,5,same
2,global,local-global,GSLD,343,454,1,0.62070878661325,0,8,36,1,2,1,6,same
2,global,local-global,GSLD,350,735,2,0.83411511345912,0,8,43,1,2,1,7,same
2,global,local-global,GSLD,363,1263,2,0.740408824676706,0,9,16,2,2,2,3,same
2,global,local-global,GSLD,370,478,1,0.659298696897167,0,9,23,2,2,2,4,same
2,global,local-global,GSLD,377,474,1,0.598763227368181,0,9,30,2,2,2,5,same
2,global,local-global,GSLD,384,448,1,0.614767140366894,0,9,37,2,2,2,6,same
2,global,local-global,GSLD,391,148,1,1.02285138025763,1,9,44,2,2,2,7,same
2,global,local-global,GSLD,403,577,1,0.641874031935004,0,10,17,3,2,3,3,same
2,global,local-global,GSLD,410,18,1,0.711450703573064,0,10,24,3,2,3,4,same
2,global,local-global,GSLD,417,353,1,0.885690901850467,0,10,31,3,2,3,5,same
2,global,local-global,GSLD,424,966,2,0.622682884059031,0,10,38,3,2,3,6,same
2,global,local-global,GSLD,431,560,2,0.697041141109366,0,10,45,3,2,3,7,same
2,global,local-global,GSLD,442,258,1,0.545949376064527,0,11,18,4,2,4,3,same
2,global,local-global,GSLD,449,90,1,0.834537087052013,0,11,25,4,2,4,4,same
2,global,local-global,GSLD,456,1010,2,0.606906525958038,0,11,32,4,2,4,5,same
2,global,local-global,GSLD,463,274,1,0.55807840439229,0,11,39,4,2,4,6,same
2,global,local-global,GSLD,470,89,1,0.649210038456658,0,11,46,4,2,4,7,same
2,global,local-global,GSLD,480,292,2,0.695080532736029,0,12,19,5,2,5,3,same
2,global,local-global,GSLD,487,675,1,0.727237911582051,0,12,26,5,2,5,4,same
2,global,local-global,GSLD,494,63,1,0.882450003897247,0,12,33,5,2,5,5,same
2,global,local-global,GSLD,501,683,2,0.719293430287507,0,12,40,5,2,5,6,same
2,global,local-global,GSLD,508,1048,1,0.67438124713226,0,12,47,5,2,5,7,same
2,global,local-global,GSLD,517,663,1,0.865347317405394,0,13,20,6,2,6,3,same
2,global,local-global,GSLD,524,748,2,0.650119085112237,0,13,27,6,2,6,4,same
2,global,local-global,GSLD,531,1107,2,1.06679586858809,0,13,34,6,2,6,5,same
2,global,local-global,GSLD,538,167,1,0.682923060048779,0,13,41,6,2,6,6,same
2,global,local-global,GSLD,545,1252,2,1.19594442029484,1,13,48,6,2,6,7,same
2,global,local-global,GSLD,553,477,2,0.640246251939971,0,14,21,7,2,7,3,same
2,global,local-global,GSLD,560,1259,2,0.535675389408425,0,14,28,7,2,7,4,same
2,global,local-global,GSLD,567,779,2,0.581329471933714,0,14,35,7,2,7,5,same
2,global,local-global,GSLD,574,757,1,0.435174416728842,0,14,42,7,2,7,6,same
2,global,local-global,GSLD,581,862,2,0.463842229379225,0,14,49,7,2,7,7,same
2,global,local-global,GSLD,588,320,2,0.564672511543904,0,15,22,1,3,1,4,same
2,global,local-global,GSLD,595,632,2,0.662441065920575,0,15,29,1,3,1,5,same
2,global,local-global,GSLD,602,1218,2,0.65417519264156,0,15,36,1,3,1,6,same
2,global,local-global,GSLD,609,710,1,0.589590066876553,0,15,43,1,3,1,7,same
2,global,local-global,GSLD,622,1042,2,0.661019727485836,0,16,23,2,3,2,4,same
2,global,local-global,GSLD,629,719,2,0.93575444714952,0,16,30,2,3,2,5,same
2,global,local-global,GSLD,636,723,2,0.593406596628483,0,16,37,2,3,2,6,same
2,global,local-global,GSLD,643,1023,2,0.485595129386638,0,16,44,2,3,2,7,same
2,global,local-global,GSLD,655,513,1,0.834030073609028,0,17,24,3,3,3,4,same
2,global,local-global,GSLD,662,206,1,0.966651476788684,0,17,31,3,3,3,5,same
2,global,local-global,GSLD,669,814,2,0.698127012001351,0,17,38,3,3,3,6,same
2,global,local-global,GSLD,676,578,2,0.547294765121478,0,17,45,3,3,3,7,same
2,global,local-global,GSLD,687,1039,2,0.390255489030096,0,18,25,4,3,4,4,same
2,global,local-global,GSLD,694,809,2,0.54057485764497,0,18,32,4,3,4,5,same
2,global,local-global,GSLD,701,435,2,0.733782754272397,0,18,39,4,3,4,6,same
2,global,local-global,GSLD,708,886,2,0.620795585906308,0,18,46,4,3,4,7,same
2,global,local-global,GSLD,718,662,2,0.788059877435444,0,19,26,5,3,5,4,same
2,global,local-global,GSLD,725,44,1,0.894736209324037,0,19,33,5,3,5,5,same
2,global,local-global,GSLD,732,890,2,0.731588432936405,0,19,40,5,3,5,6,same
2,global,local-global,GSLD,739,81,1,0.771991158202582,0,19,47,5,3,5,7,same
2,global,local-global,GSLD,748,696,1,0.830002703682112,0,20,27,6,3,6,4,same
2,global,local-global,GSLD,755,912,2,0.735202919735457,0,20,34,6,3,6,5,same
2,global,local-global,GSLD,762,455,1,1.21566985302343,1,20,41,6,3,6,6,same
2,global,local-global,GSLD,769,849,1,0.851680240790301,0,20,48,6,3,6,7,same
2,global,local-global,GSLD,777,1152,2,0.956309458248143,0,21,28,7,3,7,4,same
2,global,local-global,GSLD,784,359,1,0.569506880310655,0,21,35,7,3,7,5,same
2,global,local-global,GSLD,791,769,1,0.463423774679541,0,21,42,7,3,7,6,same
2,global,local-global,GSLD,798,695,2,0.711088551113789,0,21,49,7,3,7,7,same
2,global,local-global,GSLD,805,1189,2,0.879616124257154,0,22,29,1,4,1,5,same
2,global,local-global,GSLD,812,152,1,0.784531896693807,0,22,36,1,4,1,6,same
2,global,local-global,GSLD,819,1147,1,0.645170059164229,0,22,43,1,4,1,7,same
2,global,local-global,GSLD,832,842,2,0.64732743215427,0,23,30,2,4,2,5,same
2,global,local-global,GSLD,839,955,1,0.873711426364025,0,23,37,2,4,2,6,same
2,global,local-global,GSLD,846,894,2,0.767909245470946,0,23,44,2,4,2,7,same
2,global,local-global,GSLD,858,1205,2,0.735451294742234,0,24,31,3,4,3,5,same
2,global,local-global,GSLD,865,1143,2,0.631438762800826,0,24,38,3,4,3,6,same
2,global,local-global,GSLD,872,534,1,0.790369149188336,0,24,45,3,4,3,7,same
2,global,local-global,GSLD,883,290,1,0.708430615988618,0,25,32,4,4,4,5,same
2,global,local-global,GSLD,890,573,2,0.523605009257153,0,25,39,4,4,4,6,same
2,global,local-global,GSLD,897,356,2,0.609023138466,0,25,46,4,4,4,7,same
2,global,local-global,GSLD,907,17,1,1.36885535777401,1,26,33,5,4,5,5,same
2,global,local-global,GSLD,914,609,2,0.841952268601744,0,26,40,5,4,5,6,same
2,global,local-global,GSLD,921,74,2,1.37827806622954,0,26,47,5,4,5,7,same
2,global,local-global,GSLD,930,1211,2,0.696276368951658,0,27,34,6,4,6,5,same
2,global,local-global,GSLD,937,365,1,0.593873436067952,0,27,41,6,4,6,6,same
2,global,local-global,GSLD,944,1164,1,1.35022811205999,0,27,48,6,4,6,7,same
2,global,local-global,GSLD,952,651,2,0.660187509929528,0,28,35,7,4,7,5,same
2,global,local-global,GSLD,959,968,2,0.949524158066197,0,28,42,7,4,7,6,same
2,global,local-global,GSLD,966,998,2,0.584190329740522,0,28,49,7,4,7,7,same
2,global,local-global,GSLD,973,430,1,0.681892904918641,0,29,36,1,5,1,6,same
2,global,local-global,GSLD,980,1267,2,0.746725819211861,0,29,43,1,5,1,7,same
2,global,local-global,GSLD,993,341,1,0.637764261329721,0,30,37,2,5,2,6,same
2,global,local-global,GSLD,1000,24,1,0.787135582257179,0,30,44,2,5,2,7,same
2,global,local-global,GSLD,1012,362,1,0.513704611446883,0,31,38,3,5,3,6,same
2,global,local-global,GSLD,1019,505,1,0.636417699315643,0,31,45,3,5,3,7,same
2,global,local-global,GSLD,1030,588,2,0.497371975441638,0,32,39,4,5,4,6,same
2,global,local-global,GSLD,1037,940,2,0.457145194697659,0,32,46,4,5,4,7,same
2,global,local-global,GSLD,1047,1223,2,0.708343523452641,0,33,40,5,5,5,6,same
2,global,local-global,GSLD,1054,465,2,0.686249877573573,0,33,47,5,5,5,7,same
2,global,local-global,GSLD,1063,643,2,1.2803109877932,1,34,41,6,5,6,6,same
2,global,local-global,GSLD,1070,1139,1,0.970984403691546,0,34,48,6,5,6,7,same
2,global,local-global,GSLD,1078,251,1,0.630855506737134,0,35,42,7,5,7,6,same
2,global,local-global,GSLD,1085,438,2,0.895551418907417,0,35,49,7,5,7,7,same
2,global,local-global,GSLD,1092,927,2,0.670853266383347,0,36,43,1,6,1,7,same
2,global,local-global,GSLD,1105,637,2,0.741796733651427,0,37,44,2,6,2,7,same
2,global,local-global,GSLD,1117,85,1,0.731681390287122,0,38,45,3,6,3,7,same
2,global,local-global,GSLD,1128,1057,2,0.604573794946191,0,39,46,4,6,4,7,same
2,global,local-global,GSLD,1138,370,2,0.709493320850015,0,40,47,5,6,5,7,same
2,global,local-global,GSLD,1147,664,2,0.978475534619065,0,41,48,6,6,6,7,same
2,global,local-global,GSLD,1155,824,1,0.799590987655392,0,42,49,7,6,7,7,same
1,global,global-local,GSLD,7,442,1,0.555590842205447,0,1,8,1,1,1,2,same
1,global,global-local,GSLD,14,546,2,0.579808138372073,0,1,15,1,1,1,3,same
1,global,global-local,GSLD,21,295,1,0.492822343545868,0,1,22,1,1,1,4,same
1,global,global-local,GSLD,28,878,2,0.661038788141468,0,1,29,1,1,1,5,same
1,global,global-local,GSLD,35,447,1,0.585299366658546,0,1,36,1,1,1,6,same
1,global,global-local,GSLD,42,532,2,0.789630768707411,0,1,43,1,1,1,7,same
1,global,global-local,GSLD,55,788,1,0.59507455062294,0,2,9,2,1,2,2,same
1,global,global-local,GSLD,62,801,1,0.614396483924793,0,2,16,2,1,2,3,same
1,global,global-local,GSLD,69,947,2,0.616428936304146,0,2,23,2,1,2,4,same
1,global,global-local,GSLD,76,767,2,0.507443625911492,0,2,30,2,1,2,5,same
1,global,global-local,GSLD,83,608,2,0.755418064692549,0,2,37,2,1,2,6,same
1,global,global-local,GSLD,90,1227,2,0.852827985499971,0,2,44,2,1,2,7,same
1,global,global-local,GSLD,102,1187,2,0.516026785792747,0,3,10,3,1,3,2,same
1,global,global-local,GSLD,109,1219,2,0.793084852760785,0,3,17,3,1,3,3,same
1,global,global-local,GSLD,116,1057,2,0.941382618910666,0,3,24,3,1,3,4,same
1,global,global-local,GSLD,123,1132,2,0.600341156412924,0,3,31,3,1,3,5,same
1,global,global-local,GSLD,130,866,1,1.1398805805934,0,3,38,3,1,3,6,same
1,global,global-local,GSLD,137,945,2,0.574095219998526,0,3,45,3,1,3,7,same
1,global,global-local,GSLD,148,811,2,0.556457075696926,0,4,11,4,1,4,2,same
1,global,global-local,GSLD,155,91,1,0.626312912626645,0,4,18,4,1,4,3,same
1,global,global-local,GSLD,162,444,1,0.468080439485902,0,4,25,4,1,4,4,same
1,global,global-local,GSLD,169,109,1,0.666355538117614,0,4,32,4,1,4,5,same
1,global,global-local,GSLD,176,1225,2,0.63533505407031,0,4,39,4,1,4,6,same
1,global,global-local,GSLD,183,690,2,0.623133595255922,0,4,46,4,1,4,7,same
1,global,global-local,GSLD,193,647,1,0.459531882025658,0,5,12,5,1,5,2,same
1,global,global-local,GSLD,200,610,2,0.613009454671555,0,5,19,5,1,5,3,same
1,global,global-local,GSLD,207,510,1,0.522054938088104,0,5,26,5,1,5,4,same
1,global,global-local,GSLD,214,86,2,0.646295224338019,0,5,33,5,1,5,5,same
1,global,global-local,GSLD,221,541,2,0.719189329786332,0,5,40,5,1,5,6,same
1,global,global-local,GSLD,228,1048,2,0.675082679259503,0,5,47,5,1,5,7,same
1,global,global-local,GSLD,237,496,2,0.789314655063663,0,6,13,6,1,6,2,same
1,global,global-local,GSLD,244,809,2,0.965226326225547,0,6,20,6,1,6,3,same
1,global,global-local,GSLD,251,716,2,0.634528934954915,0,6,27,6,1,6,4,same
1,global,global-local,GSLD,258,861,2,0.826796994632787,0,6,34,6,1,6,5,same
1,global,global-local,GSLD,265,329,1,0.761986073405069,0,6,41,6,1,6,6,same
1,global,global-local,GSLD,272,618,2,0.674785333030741,0,6,48,6,1,6,7,same
1,global,global-local,GSLD,280,756,2,0.660555233967898,0,7,14,7,1,7,2,same
1,global,global-local,GSLD,287,379,1,0.514286694547991,0,7,21,7,1,7,3,same
1,global,global-local,GSLD,294,14,1,0.59554285627155,0,7,28,7,1,7,4,same
1,global,global-local,GSLD,301,377,1,0.625585675301409,0,7,35,7,1,7,5,same
1,global,global-local,GSLD,308,664,2,0.451212345674548,0,7,42,7,1,7,6,same
1,global,global-local,GSLD,315,645,2,0.666756691609862,0,7,49,7,1,7,7,same
1,global,global-local,GSLD,322,923,2,0.454095489779775,0,8,15,1,2,1,3,same
1,global,global-local,GSLD,329,787,1,0.599076115356183,0,8,22,1,2,1,4,same
1,global,global-local,GSLD,336,668,2,0.597266232787433,0,8,29,1,2,1,5,same
1,global,global-local,GSLD,343,560,1,0.508969944571618,0,8,36,1,2,1,6,same
1,global,global-local,GSLD,350,655,2,0.60823021518604,0,8,43,1,2,1,7,same
1,global,global-local,GSLD,363,642,1,0.515602466272867,0,9,16,2,2,2,3,same
1,global,global-local,GSLD,370,108,1,0.84987680951599,0,9,23,2,2,2,4,same
1,global,global-local,GSLD,377,563,1,0.500419041184387,0,9,30,2,2,2,5,same
1,global,global-local,GSLD,384,946,2,0.602241357165894,0,9,37,2,2,2,6,same
1,global,global-local,GSLD,391,198,1,0.66345538604287,0,9,44,2,2,2,7,same
1,global,global-local,GSLD,403,730,2,0.895781612977089,0,10,17,3,2,3,3,same
1,global,global-local,GSLD,410,1181,2,0.880547163979372,0,10,24,3,2,3,4,same
1,global,global-local,GSLD,417,301,2,0.684293081333863,0,10,31,3,2,3,5,same
1,global,global-local,GSLD,424,336,1,0.619381871732912,0,10,38,3,2,3,6,same
1,global,global-local,GSLD,431,1256,2,0.586197270162302,0,10,45,3,2,3,7,same
1,global,global-local,GSLD,442,172,1,0.544700463261961,0,11,18,4,2,4,3,same
1,global,global-local,GSLD,449,924,1,0.389479573721928,0,11,25,4,2,4,4,same
1,global,global-local,GSLD,456,228,1,0.568351218093312,0,11,32,4,2,4,5,same
1,global,global-local,GSLD,463,1165,2,0.642052908861388,0,11,39,4,2,4,6,same
1,global,global-local,GSLD,470,12,1,0.884116491689838,0,11,46,4,2,4,7,same
1,global,global-local,GSLD,480,598,1,0.568071173074713,0,12,19,5,2,5,3,same
1,global,global-local,GSLD,487,669,1,0.425100420331319,0,12,26,5,2,5,4,same
1,global,global-local,GSLD,494,648,2,0.546826459474232,0,12,33,5,2,5,5,same
1,global,global-local,GSLD,501,719,2,0.615232220366806,0,12,40,5,2,5,6,same
1,global,global-local,GSLD,508,1031,2,0.750722985332686,0,12,47,5,2,5,7,same
1,global,global-local,GSLD,517,593,2,0.61637967184015,0,13,20,6,2,6,3,same
1,global,global-local,GSLD,524,70,1,0.639785570555773,0,13,27,6,2,6,4,same
1,global,global-local,GSLD,531,880,2,0.550309281131831,0,13,34,6,2,6,5,same
1,global,global-local,GSLD,538,564,2,0.426909423177676,0,13,41,6,2,6,6,same
1,global,global-local,GSLD,545,1183,2,1.15942567018737,1,13,48,6,2,6,7,same
1,global,global-local,GSLD,553,993,2,0.524521680176349,0,14,21,7,2,7,3,same
1,global,global-local,GSLD,560,589,1,0.558949916221081,0,14,28,7,2,7,4,same
1,global,global-local,GSLD,567,337,1,0.461909478893404,0,14,35,7,2,7,5,same
1,global,global-local,GSLD,574,896,2,0.439899699897069,0,14,42,7,2,7,6,same
1,global,global-local,GSLD,581,925,2,0.472412193424134,0,14,49,7,2,7,7,same
1,global,global-local,GSLD,588,981,1,0.911191126765971,0,15,22,1,3,1,4,same
1,global,global-local,GSLD,595,144,1,0.591609616657934,0,15,29,1,3,1,5,same
1,global,global-local,GSLD,602,1024,1,0.464286489279402,0,15,36,1,3,1,6,same
1,global,global-local,GSLD,609,1082,2,0.561588204210693,0,15,43,1,3,1,7,same
1,global,global-local,GSLD,622,698,2,0.772963838124042,0,16,23,2,3,2,4,same
1,global,global-local,GSLD,629,128,1,0.716241672692831,0,16,30,2,3,2,5,same
1,global,global-local,GSLD,636,822,2,0.47464610227189,0,16,37,2,3,2,6,same
1,global,global-local,GSLD,643,461,1,0.535464842474084,0,16,44,2,3,2,7,same
1,global,global-local,GSLD,655,142,1,0.912244447924195,0,17,24,3,3,3,4,same
1,global,global-local,GSLD,662,1182,2,0.752444602403557,0,17,31,3,3,3,5,same
1,global,global-local,GSLD,669,518,1,0.616906332419148,0,17,38,3,3,3,6,same
1,global,global-local,GSLD,676,381,1,0.677253541323125,0,17,45,3,3,3,7,same
1,global,global-local,GSLD,687,347,1,0.444207114844403,0,18,25,4,3,4,4,same
1,global,global-local,GSLD,694,1193,2,0.606552584243673,0,18,32,4,3,4,5,same
1,global,global-local,GSLD,701,680,1,0.399013420461188,0,18,39,4,3,4,6,same
1,global,global-local,GSLD,708,240,1,0.483127800816874,0,18,46,4,3,4,7,same
1,global,global-local,GSLD,718,643,2,0.617743241824655,0,19,26,5,3,5,4,same
1,global,global-local,GSLD,725,1116,2,0.537648607135452,0,19,33,5,3,5,5,same
1,global,global-local,GSLD,732,744,2,0.597219314250196,0,19,40,5,3,5,6,same
1,global,global-local,GSLD,739,126,1,0.88354701794583,0,19,47,5,3,5,7,same
1,global,global-local,GSLD,748,585,2,0.618037655644912,0,20,27,6,3,6,4,same
1,global,global-local,GSLD,755,933,2,0.444188054188544,0,20,34,6,3,6,5,same
1,global,global-local,GSLD,762,949,2,0.475522599193027,0,20,41,6,3,6,6,same
1,global,global-local,GSLD,769,370,2,0.771368021380795,0,20,48,6,3,6,7,same
1,global,global-local,GSLD,777,890,2,0.600269898885017,0,21,28,7,3,7,4,same
1,global,global-local,GSLD,784,1008,2,0.503319779741105,0,21,35,7,3,7,5,same
1,global,global-local,GSLD,791,160,2,0.650654249675881,0,21,42,7,3,7,6,same
1,global,global-local,GSLD,798,67,1,0.682160927063364,0,21,49,7,3,7,7,same
1,global,global-local,GSLD,805,1118,2,0.655664562956645,0,22,29,1,4,1,5,same
1,global,global-local,GSLD,812,261,1,0.714186934008467,0,22,36,1,4,1,6,same
1,global,global-local,GSLD,819,875,2,0.569973719754671,0,22,43,1,4,1,7,same
1,global,global-local,GSLD,832,453,1,0.77784336598279,0,23,30,2,4,2,5,same
1,global,global-local,GSLD,839,33,1,0.975929617502516,0,23,37,2,4,2,6,same
1,global,global-local,GSLD,846,1039,2,0.483142462859178,0,23,44,2,4,2,7,same
1,global,global-local,GSLD,858,354,1,0.816154404213648,0,24,31,3,4,3,5,same
1,global,global-local,GSLD,865,455,1,0.676903704980987,0,24,38,3,4,3,6,same
1,global,global-local,GSLD,872,361,1,0.698908498882474,0,24,45,3,4,3,7,same
1,global,global-local,GSLD,883,751,2,0.606838494079057,0,25,32,4,4,4,5,same
1,global,global-local,GSLD,890,835,2,0.514093155582486,0,25,39,4,4,4,6,same
1,global,global-local,GSLD,897,408,1,0.472549136904263,0,25,46,4,4,4,7,same
1,global,global-local,GSLD,907,1055,2,0.500053956317515,0,26,33,5,4,5,5,same
1,global,global-local,GSLD,914,678,2,0.730740380380212,0,26,40,5,4,5,6,same
1,global,global-local,GSLD,921,416,1,0.644241951858021,0,26,47,5,4,5,7,same
1,global,global-local,GSLD,930,323,1,0.625795635754912,0,27,34,6,4,6,5,same
1,global,global-local,GSLD,937,214,1,0.839144487394378,0,27,41,6,4,6,6,same
1,global,global-local,GSLD,944,209,1,1.05317952263908,0,27,48,6,4,6,7,same
1,global,global-local,GSLD,952,471,2,0.56887611922707,0,28,35,7,4,7,5,same
1,global,global-local,GSLD,959,136,1,0.710510573385591,0,28,42,7,4,7,6,same
1,global,global-local,GSLD,966,4,1,0.685437600398359,0,28,49,7,4,7,7,same
1,global,global-local,GSLD,973,794,1,0.563589573058835,0,29,36,1,5,1,6,same
1,global,global-local,GSLD,980,363,1,0.565668943975197,0,29,43,1,5,1,7,same
1,global,global-local,GSLD,993,322,1,0.631483335415396,0,30,37,2,5,2,6,same
1,global,global-local,GSLD,1000,435,1,0.539158211066479,0,30,44,2,5,2,7,same
1,global,global-local,GSLD,1012,211,1,1.07875129832405,0,31,38,3,5,3,6,same
1,global,global-local,GSLD,1019,412,1,0.621530154250422,0,31,45,3,5,3,7,same
1,global,global-local,GSLD,1030,1234,2,0.64129898661804,0,32,39,4,5,4,6,same
1,global,global-local,GSLD,1037,929,2,0.586647101636572,0,32,46,4,5,4,7,same
1,global,global-local,GSLD,1047,124,1,1.04443742621334,0,33,40,5,5,5,6,same
1,global,global-local,GSLD,1054,1252,2,0.640973489267253,0,33,47,5,5,5,7,same
1,global,global-local,GSLD,1063,394,1,0.510592152992103,0,34,41,6,5,6,6,same
1,global,global-local,GSLD,1070,430,1,0.529735502611857,0,34,48,6,5,6,7,same
1,global,global-local,GSLD,1078,542,1,0.564550523346952,0,35,42,7,5,7,6,same
1,global,global-local,GSLD,1085,899,2,0.565244331214217,0,35,49,7,5,7,7,same
1,global,global-local,GSLD,1092,293,1,0.524750408044611,0,36,43,1,6,1,7,same
1,global,global-local,GSLD,1105,1106,2,0.651476497038402,0,37,44,2,6,2,7,same
1,global,global-local,GSLD,1117,1079,2,0.784863552096795,0,38,45,3,6,3,7,same
1,global,global-local,GSLD,1128,46,1,0.565739321780825,0,39,46,4,6,4,7,same
1,global,global-local,GSLD,1138,911,1,0.538442116893748,0,40,47,5,6,5,7,same
1,global,global-local,GSLD,1147,950,2,0.444053456635629,0,41,48,6,6,6,7,same
1,global,global-local,GSLD,1155,464,2,0.490236545669632,0,42,49,7,6,7,7,same
9,global,global-local,GSLD,7,1121,2,0.848361047508661,0,1,8,1,1,1,2,same
9,global,global-local,GSLD,14,1176,2,0.603136034973431,0,1,15,1,1,1,3,same
9,global,global-local,GSLD,21,34,1,0.710896185133606,0,1,22,1,1,1,4,same
9,global,global-local,GSLD,28,489,2,0.502323933818843,0,1,29,1,1,1,5,same
9,global,global-local,GSLD,35,744,2,0.868199964461382,0,1,36,1,1,1,6,same
9,global,global-local,GSLD,42,737,2,0.587983107019681,0,1,43,1,1,1,7,same
9,global,global-local,GSLD,55,400,1,0.486285711580422,0,2,9,2,1,2,2,same
9,global,global-local,GSLD,62,884,1,0.729228137293831,0,2,16,2,1,2,3,same
9,global,global-local,GSLD,69,362,2,0.508437419135589,0,2,23,2,1,2,4,same
9,global,global-local,GSLD,76,108,1,0.664726878399961,0,2,30,2,1,2,5,same
9,global,global-local,GSLD,83,273,1,1.18080087593989,0,2,37,2,1,2,6,same
9,global,global-local,GSLD,90,586,1,0.61960737395566,0,2,44,2,1,2,7,same
9,global,global-local,GSLD,102,446,1,0.673081896908116,0,3,10,3,1,3,2,same
9,global,global-local,GSLD,109,1265,2,0.564695970795583,0,3,17,3,1,3,3,same
9,global,global-local,GSLD,116,1063,1,0.676475866581313,0,3,24,3,1,3,4,same
9,global,global-local,GSLD,123,1258,2,1.28923254762776,0,3,31,3,1,3,5,same
9,global,global-local,GSLD,130,1210,2,1.01160148804775,0,3,38,3,1,3,6,same
9,global,global-local,GSLD,137,1103,2,1.2867089168285,0,3,45,3,1,3,7,same
9,global,global-local,GSLD,148,497,1,0.493273641215637,0,4,11,4,1,4,2,same
9,global,global-local,GSLD,155,1166,2,0.599927393603139,0,4,18,4,1,4,3,same
9,global,global-local,GSLD,162,309,1,2.07658542139689,1,4,25,4,1,4,4,same
9,global,global-local,GSLD,169,1043,1,0.56903446931392,0,4,32,4,1,4,5,same
9,global,global-local,GSLD,176,314,1,0.438030582678039,0,4,39,4,1,4,6,same
9,global,global-local,GSLD,183,1253,2,0.534478086978197,0,4,46,4,1,4,7,same
9,global,global-local,GSLD,193,1005,2,0.617042689409573,0,5,12,5,1,5,2,same
9,global,global-local,GSLD,200,560,2,0.759426667180378,0,5,19,5,1,5,3,same
9,global,global-local,GSLD,207,120,1,1.13131648139097,1,5,26,5,1,5,4,same
9,global,global-local,GSLD,214,833,2,0.692234630172607,0,5,33,5,1,5,5,same
9,global,global-local,GSLD,221,214,1,0.858242971182335,0,5,40,5,1,5,6,same
9,global,global-local,GSLD,228,229,1,0.851690797426272,0,5,47,5,1,5,7,same
9,global,global-local,GSLD,237,915,2,0.962306233821437,0,6,13,6,1,6,2,same
9,global,global-local,GSLD,244,353,1,0.680213221290614,0,6,20,6,1,6,3,same
9,global,global-local,GSLD,251,590,2,0.592347997182515,0,6,27,6,1,6,4,same
9,global,global-local,GSLD,258,796,2,0.852080807788298,0,6,34,6,1,6,5,same
9,global,global-local,GSLD,265,544,1,0.618401274317876,0,6,41,6,1,6,6,same
9,global,global-local,GSLD,272,519,1,0.801630477770232,0,6,48,6,1,6,7,same
9,global,global-local,GSLD,280,968,2,0.635333001380786,0,7,14,7,1,7,2,same
9,global,global-local,GSLD,287,855,2,0.858447946549859,0,7,21,7,1,7,3,same
9,global,global-local,GSLD,294,509,2,0.530665076104924,0,7,28,7,1,7,4,same
9,global,global-local,GSLD,301,663,2,0.599066145136021,0,7,35,7,1,7,5,same
9,global,global-local,GSLD,308,956,2,0.667699754179921,0,7,42,7,1,7,6,same
9,global,global-local,GSLD,315,451,2,0.510932312405203,0,7,49,7,1,7,7,same
9,global,global-local,GSLD,322,433,1,0.53960686956998,0,8,15,1,2,1,3,same
9,global,global-local,GSLD,329,66,1,0.650431679852773,0,8,22,1,2,1,4,same
9,global,global-local,GSLD,336,63,1,0.600982474163175,0,8,29,1,2,1,5,same
9,global,global-local,GSLD,343,1251,2,0.592680532310624,0,8,36,1,2,1,6,same
9,global,global-local,GSLD,350,340,1,0.683332424319815,0,8,43,1,2,1,7,same
9,global,global-local,GSLD,363,19,1,0.812197998573538,0,9,16,2,2,2,3,same
9,global,global-local,GSLD,370,550,1,0.844634249457158,0,9,23,2,2,2,4,same
9,global,global-local,GSLD,377,587,2,0.52406657038955,0,9,30,2,2,2,5,same
9,global,global-local,GSLD,384,959,1,0.890010632923804,0,9,37,2,2,2,6,same
9,global,global-local,GSLD,391,144,1,0.415803219017107,0,9,44,2,2,2,7,same
9,global,global-local,GSLD,403,56,1,1.39529336697888,0,10,17,3,2,3,3,same
9,global,global-local,GSLD,410,795,2,1.19247567420825,0,10,24,3,2,3,4,same
9,global,global-local,GSLD,417,1276,2,1.12671494582901,0,10,31,3,2,3,5,same
9,global,global-local,GSLD,424,184,1,0.933484762907028,0,10,38,3,2,3,6,same
9,global,global-local,GSLD,431,338,1,0.692327294324059,0,10,45,3,2,3,7,same
9,global,global-local,GSLD,442,1095,2,0.534646700485609,0,11,18,4,2,4,3,same
9,global,global-local,GSLD,449,900,2,0.645669741556048,0,11,25,4,2,4,4,same
9,global,global-local,GSLD,456,327,1,0.828612448764034,0,11,32,4,2,4,5,same
9,global,global-local,GSLD,463,638,2,0.488486484216992,0,11,39,4,2,4,6,same
9,global,global-local,GSLD,470,445,1,0.552371057623532,0,11,46,4,2,4,7,same
9,global,global-local,GSLD,480,208,1,0.635287842305843,0,12,19,5,2,5,3,same
9,global,global-local,GSLD,487,251,1,0.640078224940225,0,12,26,5,2,5,4,same
9,global,global-local,GSLD,494,913,1,0.731890764262062,0,12,33,5,2,5,5,same
9,global,global-local,GSLD,501,1198,2,0.55274024780374,0,12,40,5,2,5,6,same
9,global,global-local,GSLD,508,814,2,0.740307363332249,0,12,47,5,2,5,7,same
9,global,global-local,GSLD,517,1069,2,1.12399982876377,0,13,20,6,2,6,3,same
9,global,global-local,GSLD,524,1015,2,0.801664493745193,0,13,27,6,2,6,4,same
9,global,global-local,GSLD,531,710,1,1.01470075064572,0,13,34,6,2,6,5,same
9,global,global-local,GSLD,538,865,2,0.874654782237485,0,13,41,6,2,6,6,same
9,global,global-local,GSLD,545,456,2,0.612518569454551,0,13,48,6,2,6,7,same
9,global,global-local,GSLD,553,987,1,0.713756456389092,0,14,21,7,2,7,3,same
9,global,global-local,GSLD,560,316,2,0.610916887875646,0,14,28,7,2,7,4,same
9,global,global-local,GSLD,567,1190,2,0.513080888136756,0,14,35,7,2,7,5,same
9,global,global-local,GSLD,574,1082,2,0.833393447683193,0,14,42,7,2,7,6,same
9,global,global-local,GSLD,581,384,1,0.480702698929235,0,14,49,7,2,7,7,same
9,global,global-local,GSLD,588,365,1,0.927364239702001,0,15,22,1,3,1,4,same
9,global,global-local,GSLD,595,241,1,0.666056725662202,0,15,29,1,3,1,5,same
9,global,global-local,GSLD,602,549,2,0.557336505036801,0,15,36,1,3,1,6,same
9,global,global-local,GSLD,609,1271,2,0.585142776020803,0,15,43,1,3,1,7,same
9,global,global-local,GSLD,622,754,1,0.958082685712725,0,16,23,2,3,2,4,same
9,global,global-local,GSLD,629,674,1,0.789541036996525,0,16,30,2,3,2,5,same
9,global,global-local,GSLD,636,1257,2,0.496476711065043,0,16,37,2,3,2,6,same
9,global,global-local,GSLD,643,1177,2,0.566540162544698,0,16,44,2,3,2,7,same
9,global,global-local,GSLD,655,1185,2,0.882646475278307,0,17,24,3,3,3,4,same
9,global,global-local,GSLD,662,1280,2,0.560404390853364,0,17,31,3,3,3,5,same
9,global,global-local,GSLD,669,820,2,0.718851809564512,0,17,38,3,3,3,6,same
9,global,global-local,GSLD,676,679,1,0.883081937965471,0,17,45,3,3,3,7,same
9,global,global-local,GSLD,687,1108,2,0.60375096113421,0,18,25,4,3,4,4,same
9,global,global-local,GSLD,694,467,1,0.610680242534727,0,18,32,4,3,4,5,same
9,global,global-local,GSLD,701,952,2,0.508412786934059,0,18,39,4,3,4,6,same
9,global,global-local,GSLD,708,1000,2,0.630588364321738,0,18,46,4,3,4,7,same
9,global,global-local,GSLD,718,758,2,0.721189525676891,0,19,26,5,3,5,4,same
9,global,global-local,GSLD,725,525,2,0.687518437509425,0,19,33,5,3,5,5,same
9,global,global-local,GSLD,732,116,1,0.773778754461091,0,19,40,5,3,5,6,same
9,global,global-local,GSLD,739,719,2,0.691442000155803,0,19,47,5,3,5,7,same
9,global,global-local,GSLD,748,727,1,0.943702740536537,0,20,27,6,3,6,4,same
9,global,global-local,GSLD,755,1263,2,0.617408947262447,0,20,34,6,3,6,5,same
9,global,global-local,GSLD,762,342,1,0.552878071030136,0,20,41,6,3,6,6,same
9,global,global-local,GSLD,769,430,1,0.530325796455145,0,20,48,6,3,6,7,same
9,global,global-local,GSLD,777,35,1,2.03187352168607,1,21,28,7,3,7,4,same
9,global,global-local,GSLD,784,318,1,0.424782254034653,0,21,35,7,3,7,5,same
9,global,global-local,GSLD,791,845,2,0.78531397000188,0,21,42,7,3,7,6,same
9,global,global-local,GSLD,798,435,2,0.55746230535442,0,21,49,7,3,7,7,same
9,global,global-local,GSLD,805,368,2,0.857425122405402,0,22,29,1,4,1,5,same
9,global,global-local,GSLD,812,762,2,0.665012201759964,0,22,36,1,4,1,6,same
9,global,global-local,GSLD,819,831,2,0.876220981648657,0,22,43,1,4,1,7,same
9,global,global-local,GSLD,832,988,2,1.03450125304516,0,23,30,2,4,2,5,same
9,global,global-local,GSLD,839,152,1,0.586908379278611,0,23,37,2,4,2,6,same
9,global,global-local,GSLD,846,378,2,0.831567436922342,0,23,44,2,4,2,7,same
9,global,global-local,GSLD,858,253,1,1.06714541168185,0,24,31,3,4,3,5,same
9,global,global-local,GSLD,865,747,1,0.679962500347756,0,24,38,3,4,3,6,same
9,global,global-local,GSLD,872,518,1,1.43853730289266,0,24,45,3,4,3,7,same
9,global,global-local,GSLD,883,1034,1,0.654493945417926,0,25,32,4,4,4,5,same
9,global,global-local,GSLD,890,851,1,0.840736198762897,0,25,39,4,4,4,6,same
9,global,global-local,GSLD,897,874,2,0.654886008531321,0,25,46,4,4,4,7,same
9,global,global-local,GSLD,907,471,1,0.616035993560217,0,26,33,5,4,5,5,same
9,global,global-local,GSLD,914,323,1,0.763114464236423,0,26,40,5,4,5,6,same
9,global,global-local,GSLD,921,591,2,0.527121260412969,0,26,47,5,4,5,7,same
9,global,global-local,GSLD,930,1174,1,0.726539998373482,0,27,34,6,4,6,5,same
9,global,global-local,GSLD,937,1106,2,0.67656383884605,0,27,41,6,4,6,6,same
9,global,global-local,GSLD,944,107,1,0.820288807037286,0,27,48,6,4,6,7,same
9,global,global-local,GSLD,952,148,2,0.577576575451531,0,28,35,7,4,7,5,same
9,global,global-local,GSLD,959,802,1,0.809007538016886,0,28,42,7,4,7,6,same
9,global,global-local,GSLD,966,1112,2,0.472252963634674,0,28,49,7,4,7,7,same
9,global,global-local,GSLD,973,732,2,0.681936011300422,0,29,36,1,5,1,6,same
9,global,global-local,GSLD,980,1203,1,0.69911992555717,0,29,43,1,5,1,7,same
9,global,global-local,GSLD,993,781,1,0.643741096486337,0,30,37,2,5,2,6,same
9,global,global-local,GSLD,1000,1090,2,0.683430073491763,0,30,44,2,5,2,7,same
9,global,global-local,GSLD,1012,1215,2,0.954550306370948,0,31,38,3,5,3,6,same
9,global,global-local,GSLD,1019,919,2,1.07214135612594,0,31,45,3,5,3,7,same
9,global,global-local,GSLD,1030,421,1,0.561344814312179,0,32,39,4,5,4,6,same
9,global,global-local,GSLD,1037,970,1,0.452333698689472,0,32,46,4,5,4,7,same
9,global,global-local,GSLD,1047,624,1,1.03644661291037,0,33,40,5,5,5,6,same
9,global,global-local,GSLD,1054,556,2,0.61585066531552,0,33,47,5,5,5,7,same
9,global,global-local,GSLD,1063,1212,2,0.605204849271104,0,34,41,6,5,6,6,same
9,global,global-local,GSLD,1070,893,2,0.648688656219747,0,34,48,6,5,6,7,same
9,global,global-local,GSLD,1078,79,1,0.656264826946426,0,35,42,7,5,7,6,same
9,global,global-local,GSLD,1085,945,2,0.422127251280472,0,35,49,7,5,7,7,same
9,global,global-local,GSLD,1092,1039,2,0.737852350866888,0,36,43,1,6,1,7,same
9,global,global-local,GSLD,1105,1097,2,0.561043949215673,0,37,44,2,6,2,7,same
9,global,global-local,GSLD,1117,760,1,0.603412854368798,0,38,45,3,6,3,7,same
9,global,global-local,GSLD,1128,1105,2,0.539970488229301,0,39,46,4,6,4,7,same
9,global,global-local,GSLD,1138,264,1,0.780302777071483,0,40,47,5,6,5,7,same
9,global,global-local,GSLD,1147,193,1,0.547751341131516,0,41,48,6,6,6,7,same
9,global,global-local,GSLD,1155,812,1,0.505415865394752,0,42,49,7,6,7,7,same
4,global,local-global,GSLD,7,989,2,0.707326020645269,0,1,8,1,1,1,2,same
4,global,local-global,GSLD,14,232,1,0.629553690661851,0,1,15,1,1,1,3,same
4,global,local-global,GSLD,21,1045,1,0.709065535607806,0,1,22,1,1,1,4,same
4,global,local-global,GSLD,28,609,1,0.767911109964189,0,1,29,1,1,1,5,same
4,global,local-global,GSLD,35,137,2,0.686943608867296,0,1,36,1,1,1,6,same
4,global,local-global,GSLD,42,939,2,0.741631883203809,0,1,43,1,1,1,7,same
4,global,local-global,GSLD,55,741,2,0.779262236865179,0,2,9,2,1,2,2,same
4,global,local-global,GSLD,62,398,1,0.749162352578423,0,2,16,2,1,2,3,same
4,global,local-global,GSLD,69,731,2,0.942382818800979,0,2,23,2,1,2,4,same
4,global,local-global,GSLD,76,1043,2,0.728539188639843,0,2,30,2,1,2,5,same
4,global,local-global,GSLD,83,800,2,1.24093631181313,0,2,37,2,1,2,6,same
4,global,local-global,GSLD,90,1196,2,0.755440089662443,0,2,44,2,1,2,7,same
4,global,local-global,GSLD,102,1238,2,0.92454721879767,0,3,10,3,1,3,2,same
4,global,local-global,GSLD,109,33,1,1.32758597432985,0,3,17,3,1,3,3,same
4,global,local-global,GSLD,116,885,2,2.24361713545659,1,3,24,3,1,3,4,same
4,global,local-global,GSLD,123,673,1,1.24427839746204,0,3,31,3,1,3,5,same
4,global,local-global,GSLD,130,166,1,1.15827944023476,0,3,38,3,1,3,6,same
4,global,local-global,GSLD,137,1161,2,1.00536927157373,0,3,45,3,1,3,7,same
4,global,local-global,GSLD,148,77,2,0.542794062195753,0,4,11,4,1,4,2,same
4,global,local-global,GSLD,155,712,1,0.687933009321569,0,4,18,4,1,4,3,same
4,global,local-global,GSLD,162,882,2,0.824067063404073,0,4,25,4,1,4,4,same
4,global,local-global,GSLD,169,24,1,0.69435032986803,0,4,32,4,1,4,5,same
4,global,local-global,GSLD,176,707,1,1.11757854356256,1,4,39,4,1,4,6,same
4,global,local-global,GSLD,183,1134,2,1.05480029300816,0,4,46,4,1,4,7,same
4,global,local-global,GSLD,193,744,1,1.00476431214338,0,5,12,5,1,5,2,same
4,global,local-global,GSLD,200,898,1,0.820480120208231,0,5,19,5,1,5,3,same
4,global,local-global,GSLD,207,1108,2,0.744866348832147,0,5,26,5,1,5,4,same
4,global,local-global,GSLD,214,589,2,0.771162583660043,0,5,33,5,1,5,5,same
4,global,local-global,GSLD,221,1223,2,0.734126339455543,0,5,40,5,1,5,6,same
4,global,local-global,GSLD,228,266,1,0.746982680502697,0,5,47,5,1,5,7,same
4,global,local-global,GSLD,237,1201,1,0.826130318171636,0,6,13,6,1,6,2,same
4,global,local-global,GSLD,244,89,2,1.35020201480802,0,6,20,6,1,6,3,same
4,global,local-global,GSLD,251,444,1,1.392221623355,1,6,27,6,1,6,4,same
4,global,local-global,GSLD,258,436,1,0.570809871482197,0,6,34,6,1,6,5,same
4,global,local-global,GSLD,265,1111,2,0.634320935234427,0,6,41,6,1,6,6,same
4,global,local-global,GSLD,272,621,1,0.67951929330593,0,6,48,6,1,6,7,same
4,global,local-global,GSLD,280,445,1,0.634182524736389,0,7,14,7,1,7,2,same
4,global,local-global,GSLD,287,1055,2,3.40072067295114,1,7,21,7,1,7,3,same
4,global,local-global,GSLD,294,211,1,0.678398520176415,0,7,28,7,1,7,4,same
4,global,local-global,GSLD,301,1209,2,0.785470475464535,0,7,35,7,1,7,5,same
4,global,local-global,GSLD,308,401,1,0.585100461968977,0,7,42,7,1,7,6,same
4,global,local-global,GSLD,315,197,1,0.680199029600772,0,7,49,7,1,7,7,same
4,global,local-global,GSLD,322,831,2,0.778722670525895,0,8,15,1,2,1,3,same
4,global,local-global,GSLD,329,565,1,0.777338272324414,0,8,22,1,2,1,4,same
4,global,local-global,GSLD,336,145,1,1.1839026833477,0,8,29,1,2,1,5,same
4,global,local-global,GSLD,343,1091,2,1.59830048332515,1,8,36,1,2,1,6,same
4,global,local-global,GSLD,350,1199,2,0.74865328346641,0,8,43,1,2,1,7,same
4,global,local-global,GSLD,363,553,2,0.831079666379082,0,9,16,2,2,2,3,same
4,global,local-global,GSLD,370,641,2,0.8275018136992,0,9,23,2,2,2,4,same
4,global,local-global,GSLD,377,476,1,2.41882400343457,1,9,30,2,2,2,5,same
4,global,local-global,GSLD,384,257,1,3.48771342927648,1,9,37,2,2,2,6,same
4,global,local-global,GSLD,391,360,1,0.694579352319124,0,9,44,2,2,2,7,same
4,global,local-global,GSLD,403,1150,2,1.41376029061939,1,10,17,3,2,3,3,same
4,global,local-global,GSLD,410,291,1,0.799120037678222,0,10,24,3,2,3,4,same
4,global,local-global,GSLD,417,1012,2,0.89091728036874,0,10,31,3,2,3,5,same
4,global,local-global,GSLD,424,919,2,1.18363553935342,0,10,38,3,2,3,6,same
4,global,local-global,GSLD,431,44,1,1.10946804036939,0,10,45,3,2,3,7,same
4,global,local-global,GSLD,442,572,2,0.818641782490886,0,11,18,4,2,4,3,same
4,global,local-global,GSLD,449,914,2,0.540906166483182,0,11,25,4,2,4,4,same
4,global,local-global,GSLD,456,1222,2,0.734299645824649,0,11,32,4,2,4,5,same
4,global,local-global,GSLD,463,158,1,0.639632731268648,0,11,39,4,2,4,6,same
4,global,local-global,GSLD,470,45,1,1.63864127812121,1,11,46,4,2,4,7,same
4,global,local-global,GSLD,480,118,1,1.62566617382254,1,12,19,5,2,5,3,same
4,global,local-global,GSLD,487,1198,2,0.986486209098075,1,12,26,5,2,5,4,same
4,global,local-global,GSLD,494,452,2,0.803727465034171,0,12,33,5,2,5,5,same
4,global,local-global,GSLD,501,811,1,1.06404975036276,0,12,40,5,2,5,6,same
4,global,local-global,GSLD,508,163,1,0.647046783335099,0,12,47,5,2,5,7,same
4,global,local-global,GSLD,517,917,2,0.737853452606942,0,13,20,6,2,6,3,same
4,global,local-global,GSLD,524,46,1,0.739817591391329,0,13,27,6,2,6,4,same
4,global,local-global,GSLD,531,320,2,1.03015149498242,0,13,34,6,2,6,5,same
4,global,local-global,GSLD,538,63,1,0.746626390777237,0,13,41,6,2,6,6,same
4,global,local-global,GSLD,545,689,2,0.763855565128324,0,13,48,6,2,6,7,same
4,global,local-global,GSLD,553,721,2,0.672927786668879,0,14,21,7,2,7,3,same
4,global,local-global,GSLD,560,236,1,0.524469040334225,0,14,28,7,2,7,4,same
4,global,local-global,GSLD,567,1029,1,0.549008752117516,0,14,35,7,2,7,5,same
4,global,local-global,GSLD,574,252,1,0.883111456219922,0,14,42,7,2,7,6,same
4,global,local-global,GSLD,581,625,1,0.773582128153066,0,14,49,7,2,7,7,same
4,global,local-global,GSLD,588,177,1,0.797524504814646,0,15,22,1,3,1,4,same
4,global,local-global,GSLD,595,116,1,0.715945299700252,0,15,29,1,3,1,5,same
4,global,local-global,GSLD,602,706,1,0.826422387784987,0,15,36,1,3,1,6,same
4,global,local-global,GSLD,609,729,2,0.601456653173955,0,15,43,1,3,1,7,same
4,global,local-global,GSLD,622,279,2,0.762911324032757,0,16,23,2,3,2,4,same
4,global,local-global,GSLD,629,958,2,1.13833835853438,0,16,30,2,3,2,5,same
4,global,local-global,GSLD,636,705,2,0.965042552430532,0,16,37,2,3,2,6,same
4,global,local-global,GSLD,643,805,2,0.758526467783668,0,16,44,2,3,2,7,same
4,global,local-global,GSLD,655,251,1,0.646476133282704,0,17,24,3,3,3,4,same
4,global,local-global,GSLD,662,39,2,0.742079078132519,0,17,31,3,3,3,5,same
4,global,local-global,GSLD,669,1212,2,1.0399657375383,1,17,38,3,3,3,6,same
4,global,local-global,GSLD,676,1051,2,1.23560574826115,1,17,45,3,3,3,7,same
4,global,local-global,GSLD,687,441,1,0.984447000213549,0,18,25,4,3,4,4,same
4,global,local-global,GSLD,694,486,1,0.581905877348618,0,18,32,4,3,4,5,same
4,global,local-global,GSLD,701,256,1,0.70208988118975,0,18,39,4,3,4,6,same
4,global,local-global,GSLD,708,283,1,0.726285912685853,0,18,46,4,3,4,7,same
4,global,local-global,GSLD,718,430,1,1.13830228969891,0,19,26,5,3,5,4,same
4,global,local-global,GSLD,725,148,1,0.722261744806019,0,19,33,5,3,5,5,same
4,global,local-global,GSLD,732,1159,2,0.686164756582002,0,19,40,5,3,5,6,same
4,global,local-global,GSLD,739,832,2,0.742611899899202,0,19,47,5,3,5,7,same
4,global,local-global,GSLD,748,652,2,0.598414847932872,0,20,27,6,3,6,4,same
4,global,local-global,GSLD,755,1131,2,0.603285020639305,0,20,34,6,3,6,5,same
4,global,local-global,GSLD,762,248,1,0.709885441858205,0,20,41,6,3,6,6,same
4,global,local-global,GSLD,769,1251,2,0.681682837042899,0,20,48,6,3,6,7,same
4,global,local-global,GSLD,777,1211,2,1.00533408246702,0,21,28,7,3,7,4,same
4,global,local-global,GSLD,784,1018,2,0.657018790399889,0,21,35,7,3,7,5,same
4,global,local-global,GSLD,791,1215,2,0.96987284415809,0,21,42,7,3,7,6,same
4,global,local-global,GSLD,798,1028,2,0.592311590182362,0,21,49,7,3,7,7,same
4,global,local-global,GSLD,805,545,2,1.3562683239943,0,22,29,1,4,1,5,same
4,global,local-global,GSLD,812,1124,1,1.42379035970953,1,22,36,1,4,1,6,same
4,global,local-global,GSLD,819,472,1,0.964576883219706,0,22,43,1,4,1,7,same
4,global,local-global,GSLD,832,676,2,0.889046685981157,0,23,30,2,4,2,5,same
4,global,local-global,GSLD,839,571,1,1.12214872911863,0,23,37,2,4,2,6,same
4,global,local-global,GSLD,846,228,1,0.893693994337809,0,23,44,2,4,2,7,same
4,global,local-global,GSLD,858,179,1,0.952352186686767,0,24,31,3,4,3,5,same
4,global,local-global,GSLD,865,410,1,1.05858605467074,0,24,38,3,4,3,6,same
4,global,local-global,GSLD,872,290,1,1.92105118080508,1,24,45,3,4,3,7,same
4,global,local-global,GSLD,883,1147,2,0.614638200240734,0,25,32,4,4,4,5,same
4,global,local-global,GSLD,890,714,2,0.857588502076396,0,25,39,4,4,4,6,same
4,global,local-global,GSLD,897,318,2,0.885899899883952,0,25,46,4,4,4,7,same
4,global,local-global,GSLD,907,425,2,0.858812496589962,0,26,33,5,4,5,5,same
4,global,local-global,GSLD,914,978,2,0.844160631240811,0,26,40,5,4,5,6,same
4,global,local-global,GSLD,921,1105,2,0.910474800788506,0,26,47,5,4,5,7,same
4,global,local-global,GSLD,930,284,1,1.51083179430134,1,27,34,6,4,6,5,same
4,global,local-global,GSLD,937,1149,2,0.894409506225202,0,27,41,6,4,6,6,same
4,global,local-global,GSLD,944,152,1,0.548497043819225,0,27,48,6,4,6,7,same
4,global,local-global,GSLD,952,390,1,0.650113807438174,0,28,35,7,4,7,5,same
4,global,local-global,GSLD,959,52,1,0.742142125287501,0,28,42,7,4,7,6,same
4,global,local-global,GSLD,966,466,2,0.996101339944289,0,28,49,7,4,7,7,same
4,global,local-global,GSLD,973,924,2,0.670248429247295,0,29,36,1,5,1,6,same
4,global,local-global,GSLD,980,642,1,0.654757303651422,0,29,43,1,5,1,7,same
4,global,local-global,GSLD,993,629,1,0.685137234591821,0,30,37,2,5,2,6,same
4,global,local-global,GSLD,1000,70,1,0.885964413253532,0,30,44,2,5,2,7,same
4,global,local-global,GSLD,1012,827,2,1.6164175961967,0,31,38,3,5,3,6,same
4,global,local-global,GSLD,1019,926,2,0.97170590350288,0,31,45,3,5,3,7,same
4,global,local-global,GSLD,1030,936,2,0.72177584185556,0,32,39,4,5,4,6,same
4,global,local-global,GSLD,1037,184,1,0.581691810264601,0,32,46,4,5,4,7,same
4,global,local-global,GSLD,1047,1129,2,0.817040678026387,0,33,40,5,5,5,6,same
4,global,local-global,GSLD,1054,874,2,0.644905232795281,0,33,47,5,5,5,7,same
4,global,local-global,GSLD,1063,1061,2,1.22044158813515,1,34,41,6,5,6,6,same
4,global,local-global,GSLD,1070,846,1,0.683425284434634,0,34,48,6,5,6,7,same
4,global,local-global,GSLD,1078,869,1,0.582916977749846,0,35,42,7,5,7,6,same
4,global,local-global,GSLD,1085,1023,2,2.08170705888188,1,35,49,7,5,7,7,same
4,global,local-global,GSLD,1092,1062,2,0.889586545563361,0,36,43,1,6,1,7,same
4,global,local-global,GSLD,1105,471,1,0.790841506495781,0,37,44,2,6,2,7,same
